Timestamp	Acc.X	Acc.Y	Acc.Z	Gyro.X	Gyro.Y	Gyro.Z	Magn.X	Magn.Y	Magn.Z	Distance.x	Distance.y	P.0	P.1	P.2	P.3	P.4	P.5	P.6	P.7	P.8	P.9	P.10	P.11	P.12	P.13	P.14	P.15	PPG_RED.	PPG_IR.	PPG_GREEN.
1651053504015	-265.96	1070.672	555.344	-4.48	0.42	0	-106.5	-442.5	-456	0	0	0	0	0	0	0	0	0	0	0	0	0	0	0	0	0	0	3160	2627	0
1651053504025	-263.52	1034.56	571.448	-24.64	14.7	30.24	-307.5	-201	-633	0	0	0	0	0	0	0	0	0	0	0	0	0	0	0	0	0	0	3203	2666	0
1651053504035	-222.04	959.408	549	-35.7	28.28	64.54	-300	-205.5	-633	0	0	0	0	0	0	0	0	0	0	0	0	0	0	0	0	0	0	3241	2718	0
1651053504045	-239.12	919.392	524.6	-61.11	47.81	109.55	-295.5	-202.5	-639	0	0	0	0	0	0	0	0	0	0	0	0	0	0	0	0	0	0	3296	2755	0
1651053504055	-215.208	870.592	467.016	-55.23	49.49	129.64	-282	-199.5	-648	0	0	0	0	0	0	0	0	0	0	0	0	0	0	0	0	0	0	3343	2809	0
1651053504065	-214.232	758.352	454.328	-55.72	53.97	142.03	-270	-199.5	-648	0	0	0	0	0	0	0	0	0	0	0	0	0	0	0	0	0	0	3400	2844	0
1651053504075	-115.168	680.272	562.176	-60.9	58.45	154.77	-258	-207	-651	0	0	0	0	0	0	0	0	0	0	0	0	0	0	0	0	0	0	3442	2865	0
1651053504085	33.184	531.432	750.056	-63	58.38	166.32	-243	-208.5	-658.5	0	0	0	0	0	0	0	0	0	0	0	0	0	0	0	0	0	0	3465	2903	0
1651053504095	159.088	439.688	832.528	-59.85	55.79	165.97	-231	-202.5	-660	0	0	0	0	0	0	0	0	0	0	0	0	0	0	0	0	0	0	3469	2908	0
1651053504105	246.44	367.952	867.176	-54.67	54.53	157.57	-219	-201	-664.5	0	0	0	0	0	0	0	0	0	0	0	0	0	0	0	0	0	0	3509	2905	0
1651053504115	293.288	359.656	901.336	-51.17	52.71	146.86	-205.5	-205.5	-672	0	0	0	0	0	0	0	0	0	0	0	0	0	0	0	0	0	0	3483	2891	0
1651053504125	279.624	395.768	906.216	-44.45	47.18	140.7	-196.5	-213	-676.5	0	0	0	0	0	0	0	0	0	0	0	0	0	0	0	0	0	0	3483	2876	0
1651053504135	293.288	368.928	858.88	-42.91	42.77	141.89	-186	-207	-681	0	0	0	0	0	0	0	0	0	0	0	0	0	0	0	0	0	0	3463	2857	0
1651053504145	326.472	306.464	780.312	-43.68	45.85	138.04	-177	-204	-682.5	0	0	0	0	0	0	0	0	0	0	0	0	0	0	0	0	0	0	3452	2830	0
1651053504155	389.424	234.24	775.432	-45.43	46.06	136.57	-162	-205.5	-687	0	0	0	0	0	0	0	0	0	0	0	0	0	0	0	0	0	0	3415	2807	0
1651053504165	466.04	142.008	749.08	-47.11	58.1	126.91	-142.5	-205.5	-690	0	0	0	0	0	0	0	0	0	0	0	0	0	0	0	0	0	0	3404	2784	0
1651053504175	519.72	161.528	820.328	-42.63	64.82	112	-133.5	-199.5	-693	0	0	0	0	0	0	0	0	0	0	0	0	0	0	0	0	0	0	3382	2767	0
1651053504185	497.272	163.968	915.488	-41.65	62.51	94.01	-129	-192	-697.5	0	0	0	0	0	0	0	0	0	0	0	0	0	0	0	0	0	0	3374	2754	0
1651053504195	491.416	157.624	983.808	-47.32	53.97	84.14	-123	-195	-703.5	0	0	0	0	0	0	0	0	0	0	0	0	0	0	0	0	0	0	3350	2734	0
1651053504205	499.712	111.752	1013.088	-55.72	42.7	75.46	-117	-193.5	-709.5	0	0	0	0	0	0	0	0	0	0	0	0	0	0	0	0	0	0	3335	2715	0
1651053504215	524.112	122	1027.728	-66.78	30.87	68.04	-108	-189	-709.5	0	0	0	0	0	0	0	0	0	0	0	0	0	0	0	0	0	0	3333	2727	0
1651053504226	511.424	159.088	1020.408	-72.03	15.89	61.67	-102	-181.5	-711	0	0	0	0	0	0	0	0	0	0	0	0	0	0	0	0	0	0	3349	2735	0
1651053504236	463.6	105.896	969.168	-80.15	10.78	55.02	-93	-178.5	-714	0	0	0	0	0	0	0	0	0	0	0	0	0	0	0	0	0	0	3345	2745	0
1651053504246	531.432	55.632	933.056	-83.58	15.19	48.86	-84	-186	-715.5	0	0	0	0	0	0	0	0	0	0	0	0	0	0	0	0	0	0	3361	2763	0
1651053504256	513.864	101.504	946.72	-73.64	21.14	40.46	-75	-181.5	-715.5	0	0	0	0	0	0	0	0	0	0	0	0	0	0	0	0	0	0	3373	2770	0
1651053504266	487.024	120.048	947.208	-59.92	27.51	32.9	-63	-180	-712.5	0	0	0	0	0	0	0	0	0	0	0	0	0	0	0	0	0	0	3391	2783	0
1651053504276	463.112	164.944	948.184	-45.08	31.92	26.88	-60	-183	-715.5	0	0	0	0	0	0	0	0	0	0	0	0	0	0	0	0	0	0	3403	2794	0
1651053504286	418.216	225.456	919.88	-36.26	32.13	20.37	-57	-178.5	-718.5	0	0	0	0	0	0	0	0	0	0	0	0	0	0	0	0	0	0	3395	2805	0
1651053504296	315.736	255.224	814.472	-37.8	29.26	22.68	-52.5	-174	-717	0	0	0	0	0	0	0	0	0	0	0	0	0	0	0	0	0	0	3402	2798	0
1651053504306	270.352	246.44	755.912	-44.8	27.3	29.19	-51	-174	-718.5	0	0	0	0	0	0	0	0	0	0	0	0	0	0	0	0	0	0	3399	2785	0
1651053504316	261.08	228.872	752.984	-48.09	24.85	32.76	-39	-174	-717	0	0	0	0	0	0	0	0	0	0	0	0	0	0	0	0	0	0	3385	2779	0
1651053504326	235.216	225.944	833.016	-63.56	25.41	33.46	-37.5	-168	-724.5	0	0	0	0	0	0	0	0	0	0	0	0	0	0	0	0	0	0	3358	2762	0
1651053504336	270.84	199.592	903.288	-71.54	25.97	29.82	-40.5	-163.5	-729	0	0	0	0	0	0	0	0	0	0	0	0	0	0	0	0	0	0	3327	2733	0
1651053504346	295.728	183.488	983.32	-64.96	24.01	23.38	-34.5	-159	-721.5	0	0	0	0	0	0	0	0	0	0	0	0	0	0	0	0	0	0	3301	2699	0
1651053504356	302.072	156.16	998.448	-51.45	24.43	20.37	-24	-162	-721.5	0	0	0	0	0	0	0	0	0	0	0	0	0	0	0	0	0	0	3243	2656	0
1651053504366	291.336	192.76	976	-35.77	28.21	19.88	-18	-160.5	-721.5	0	0	0	0	0	0	0	0	0	0	0	0	0	0	0	0	0	0	3190	2610	0
1651053504376	247.416	203.984	967.216	-19.18	27.37	20.65	-16.5	-157.5	-720	0	0	0	0	0	0	0	0	0	0	0	0	0	0	0	0	0	0	3128	2555	0
1651053504386	241.072	204.472	900.848	-4.76	23.38	22.47	-15	-159	-726	0	0	0	0	0	0	0	0	0	0	0	0	0	0	0	0	0	0	3084	2500	0
1651053504396	251.808	274.744	958.432	-1.4	15.12	31.71	-15	-157.5	-724.5	0	0	0	0	0	0	0	0	0	0	0	0	0	0	0	0	0	0	3008	2449	0
1651053504406	136.64	182.512	979.416	8.75	0	48.3	-6	-159	-726	0	0	0	0	0	0	0	0	0	0	0	0	0	0	0	0	0	0	2941	2390	0
1651053504416	195.2	103.456	1023.336	6.51	5.81	50.89	3	-154.5	-727.5	0	0	0	0	0	0	0	0	0	0	0	0	0	0	0	0	0	0	2878	2327	0
1651053504426	198.616	180.072	1078.48	7.84	21.84	44.17	-3	-153	-721.5	0	0	0	0	0	0	0	0	0	0	0	0	0	0	0	0	0	0	2816	2265	0
1651053504436	266.448	143.96	1091.656	14	23.59	33.6	-4.5	-154.5	-723	0	0	0	0	0	0	0	0	0	0	0	0	0	0	0	0	0	0	2744	2215	0
1651053504446	218.136	201.544	1077.504	21.35	31.85	21.42	3	-150	-727.5	0	0	0	0	0	0	0	0	0	0	0	0	0	0	0	0	0	0	2573	2051	0
1651053504456	169.824	261.08	1070.184	18.76	40.11	10.57	4.5	-145.5	-729	0	0	0	0	0	0	0	0	0	0	0	0	0	0	0	0	0	0	2369	1881	0
1651053504466	81.496	-111.752	981.368	1.68	53.69	19.04	3	-139.5	-735	0	0	0	0	0	0	0	0	0	0	0	0	0	0	0	0	0	0	2229	1768	0
1651053504476	162.504	301.096	1022.36	11.9	39.9	14.7	6	-139.5	-741	0	0	0	0	0	0	0	0	0	0	0	0	0	0	0	0	0	0	2120	1675	0
1651053504486	134.2	236.192	1079.944	0.63	37.24	12.81	1.5	-139.5	-744	0	0	0	0	0	0	0	0	0	0	0	0	0	0	0	0	0	0	2048	1612	0
1651053504496	140.056	257.664	1137.528	-3.5	34.23	21.14	1.5	-135	-742.5	0	0	0	0	0	0	0	0	0	0	0	0	0	0	0	0	0	0	1996	1569	0
1651053504506	138.104	241.072	1147.776	-0.63	31.92	21.91	4.5	-129	-742.5	0	0	0	0	0	0	0	0	0	0	0	0	0	0	0	0	0	0	1957	1534	0
1651053504516	145.912	233.264	1191.208	8.26	31.85	22.26	-1.5	-126	-742.5	0	0	0	0	0	0	0	0	0	0	0	0	0	0	0	0	0	0	1939	1515	0
1651053504526	148.352	243.024	1206.824	16.59	32.06	21.35	1.5	-124.5	-744	0	0	0	0	0	0	0	0	0	0	0	0	0	0	0	0	0	0	1931	1503	0
1651053504536	154.696	245.952	1185.352	28.35	30.03	18.34	4.5	-118.5	-745.5	0	0	0	0	0	0	0	0	0	0	0	0	0	0	0	0	0	0	1933	1492	0
1651053504546	138.104	276.208	1187.304	37.1	31.22	16.94	4.5	-112.5	-750	0	0	0	0	0	0	0	0	0	0	0	0	0	0	0	0	0	0	1941	1485	0
1651053504556	24.888	223.016	1059.448	42	41.72	35.21	3	-111	-754.5	0	0	0	0	0	0	0	0	0	0	0	0	0	0	0	0	0	0	1937	1468	0
1651053504566	125.904	271.816	1111.176	47.95	34.23	38.29	-1.5	-112.5	-757.5	0	0	0	0	0	0	0	0	0	0	0	0	0	0	0	0	0	0	1915	1432	0
1651053504576	110.776	295.24	1118.008	48.65	30.73	36.68	-7.5	-109.5	-756	0	0	0	0	0	0	0	0	0	0	0	0	0	0	0	0	0	0	1882	1392	0
1651053504586	148.84	280.112	1081.896	52.01	26.88	38.15	-4.5	-109.5	-760.5	0	0	0	0	0	0	0	0	0	0	0	0	0	0	0	0	0	0	1862	1353	0
1651053504596	138.104	251.808	1033.584	55.72	24.78	31.99	1.5	-108	-759	0	0	0	0	0	0	0	0	0	0	0	0	0	0	0	0	0	0	1857	1341	0
1651053504606	116.144	269.864	1016.992	47.67	24.99	27.58	-3	-103.5	-759	0	0	0	0	0	0	0	0	0	0	0	0	0	0	0	0	0	0	1876	1359	0
1651053504616	137.128	273.28	1039.44	38.71	24.43	24.99	-10.5	-100.5	-765	0	0	0	0	0	0	0	0	0	0	0	0	0	0	0	0	0	0	1941	1405	0
1651053504626	132.736	256.2	1053.104	34.09	21.07	21.49	-13.5	-99	-766.5	0	0	0	0	0	0	0	0	0	0	0	0	0	0	0	0	0	0	1998	1449	0
1651053504636	122	234.24	1058.472	28	19.04	17.01	-12	-97.5	-772.5	0	0	0	0	0	0	0	0	0	0	0	0	0	0	0	0	0	0	2036	1461	0
1651053504646	137.128	243.024	1098.976	18.13	16.1	13.86	-15	-96	-771	0	0	0	0	0	0	0	0	0	0	0	0	0	0	0	0	0	0	2020	1441	0
1651053504656	135.176	219.112	1126.304	13.37	10.5	8.96	-13.5	-96	-769.5	0	0	0	0	0	0	0	0	0	0	0	0	0	0	0	0	0	0	1977	1415	0
1651053504666	153.232	202.032	1147.776	4.9	3.99	0.28	-12	-94.5	-765	0	0	0	0	0	0	0	0	0	0	0	0	0	0	0	0	0	0	1917	1371	0
1651053504676	156.16	182.512	1177.544	-0.98	-3.08	-8.68	-10.5	-94.5	-768	0	0	0	0	0	0	0	0	0	0	0	0	0	0	0	0	0	0	1840	1335	0
1651053504686	247.904	151.768	1254.16	-0.7	-11.27	-17.5	-10.5	-94.5	-768	0	0	0	0	0	0	0	0	0	0	0	0	0	0	0	0	0	0	1800	1302	0
1651053504696	213.256	156.16	1264.408	-12.11	-30.73	-29.26	-13.5	-96	-768	0	0	0	0	0	0	0	0	0	0	0	0	0	0	0	0	0	0	1773	1290	0
1651053504706	186.416	132.248	1269.776	-15.19	-43.68	-37.94	-15	-96	-765	0	0	0	0	0	0	0	0	0	0	0	0	0	0	0	0	0	0	1747	1292	0
1651053504716	173.728	101.992	1200.48	-13.72	-54.11	-47.6	-15	-97.5	-762	0	0	0	0	0	0	0	0	0	0	0	0	0	0	0	0	0	0	1731	1288	0
1651053504726	179.584	68.32	1136.552	-13.58	-58.03	-60.48	-16.5	-103.5	-759	0	0	0	0	0	0	0	0	0	0	0	0	0	0	0	0	0	0	1695	1274	0
1651053504736	127.368	84.424	1117.52	-8.68	-59.99	-73.57	-18	-112.5	-759	0	0	0	0	0	0	0	0	0	0	0	0	0	0	0	0	0	0	1651	1260	0
1651053504746	117.608	55.632	1238.544	0.21	-63.42	-82.18	-25.5	-118.5	-759	0	0	0	0	0	0	0	0	0	0	0	0	0	0	0	0	0	0	1626	1230	0
1651053504756	139.08	7.808	1318.576	5.6	-72.1	-89.32	-33	-121.5	-754.5	0	0	0	0	0	0	0	0	0	0	0	0	0	0	0	0	0	0	1584	1221	0
1651053504766	210.328	20.496	1386.896	7.49	-87.5	-106.68	-34.5	-127.5	-750	0	0	0	0	0	0	0	0	0	0	0	0	0	0	0	0	0	0	1558	1204	0
1651053504776	190.808	-6.832	1333.216	10.57	-98.56	-126.49	-34.5	-136.5	-744	0	0	0	0	0	0	0	0	0	0	0	0	0	0	0	0	0	0	1540	1186	0
1651053504786	235.704	1.952	1212.68	28.07	-113.33	-142.52	-42	-144	-739.5	0	0	0	0	0	0	0	0	0	0	0	0	0	0	0	0	0	0	1510	1165	0
1651053504796	118.096	44.896	1137.528	47.53	-120.47	-159.67	-54	-148.5	-738	0	0	0	0	0	0	0	0	0	0	0	0	0	0	0	0	0	0	1485	1150	0
1651053504806	46.36	94.184	1007.232	71.05	-121.87	-167.86	-64.5	-156	-732	0	0	0	0	0	0	0	0	0	0	0	0	0	0	0	0	0	0	1461	1127	0
1651053504816	-10.248	170.8	945.256	93.8	-117.88	-170.73	-73.5	-166.5	-724.5	0	0	0	0	0	0	0	0	0	0	0	0	0	0	0	0	0	0	1433	1087	0
1651053504826	-25.864	253.76	954.528	113.33	-117.53	-166.67	-91.5	-181.5	-718.5	0	0	0	0	0	0	0	0	0	0	0	0	0	0	0	0	0	0	1410	1068	0
1651053504836	-53.192	326.96	907.68	126.49	-119.98	-159.6	-114	-189	-711	0	0	0	0	0	0	0	0	0	0	0	0	0	0	0	0	0	0	1380	1038	0
1651053504846	-91.744	377.712	824.232	131.39	-125.44	-149.03	-130.5	-198	-708	0	0	0	0	0	0	0	0	0	0	0	0	0	0	0	0	0	0	1359	1027	0
1651053504856	-139.568	427.488	699.304	130.27	-121.52	-139.44	-147	-204	-700.5	0	0	0	0	0	0	0	0	0	0	0	0	0	0	0	0	0	0	1358	1012	0
1651053504866	-173.728	488	579.256	127.12	-114.31	-126.21	-163.5	-207	-693	0	0	0	0	0	0	0	0	0	0	0	0	0	0	0	0	0	0	1354	1011	0
1651053504876	-198.128	520.208	501.176	114.38	-97.09	-108.71	-178.5	-214.5	-682.5	0	0	0	0	0	0	0	0	0	0	0	0	0	0	0	0	0	0	1345	984	0
1651053504886	-178.12	565.592	502.64	99.89	-74.34	-93.94	-190.5	-214.5	-675	0	0	0	0	0	0	0	0	0	0	0	0	0	0	0	0	0	0	1337	973	0
1651053504896	-208.376	596.336	446.52	87.22	-54.81	-80.01	-202.5	-216	-667.5	0	0	0	0	0	0	0	0	0	0	0	0	0	0	0	0	0	0	1337	969	0
1651053504906	-205.936	635.864	454.816	64.47	-24.71	-52.92	-216	-217.5	-664.5	0	0	0	0	0	0	0	0	0	0	0	0	0	0	0	0	0	0	1334	969	0
1651053504916	-216.184	670.024	502.64	53.34	-0.21	-39.2	-220.5	-217.5	-666	0	0	0	0	0	0	0	0	0	0	0	0	0	0	0	0	0	0	1319	949	0
1651053504926	-187.392	710.04	585.112	52.92	19.11	-29.54	-222	-222	-666	0	0	0	0	0	0	0	0	0	0	0	0	0	0	0	0	0	0	1319	952	0
1651053504936	-167.384	757.376	622.688	64.26	34.44	-22.68	-223.5	-219	-660	0	0	0	0	0	0	0	0	0	0	0	0	0	0	0	0	0	0	1324	959	0
1651053504946	-180.56	743.224	602.68	68.46	47.04	-12.18	-225	-213	-660	0	0	0	0	0	0	0	0	0	0	0	0	0	0	0	0	0	0	1335	962	0
1651053504956	-198.616	732.976	577.792	64.96	59.99	0.84	-232.5	-210	-664.5	0	0	0	0	0	0	0	0	0	0	0	0	0	0	0	0	0	0	1330	952	0
1651053504966	-211.792	731.512	595.36	56.49	69.72	15.4	-237	-211.5	-667.5	0	0	0	0	0	0	0	0	0	0	0	0	0	0	0	0	0	0	1326	952	0
1651053504976	-208.376	717.36	633.912	43.75	78.19	30.94	-241.5	-205.5	-672	0	0	0	0	0	0	0	0	0	0	0	0	0	0	0	0	0	0	1329	955	0
1651053504986	-196.664	709.552	664.656	31.08	86.03	45.43	-238.5	-205.5	-675	0	0	0	0	0	0	0	0	0	0	0	0	0	0	0	0	0	0	1316	945	0
1651053504996	-182.024	695.4	675.392	20.16	93.73	57.68	-237	-201	-684	0	0	0	0	0	0	0	0	0	0	0	0	0	0	0	0	0	0	1318	950	0
1651053505006	-153.232	646.6	704.672	8.26	104.51	74.41	-238.5	-195	-687	0	0	0	0	0	0	0	0	0	0	0	0	0	0	0	0	0	0	1318	944	0
1651053505016	-136.152	621.224	741.76	5.67	112.21	82.95	-226.5	-199.5	-691.5	0	0	0	0	0	0	0	0	0	0	0	0	0	0	0	0	0	0	1324	949	0
1651053505026	-117.12	593.896	762.744	6.3	118.09	88.27	-220.5	-192	-696	0	0	0	0	0	0	0	0	0	0	0	0	0	0	0	0	0	0	1320	947	0
1651053505036	-98.576	553.88	801.296	9.94	121.66	90.86	-223.5	-178.5	-699	0	0	0	0	0	0	0	0	0	0	0	0	0	0	0	0	0	0	1317	952	0
1651053505046	-91.256	551.44	799.832	14.7	125.23	91.28	-220.5	-172.5	-706.5	0	0	0	0	0	0	0	0	0	0	0	0	0	0	0	0	0	0	1323	935	0
1651053505056	-91.744	520.696	786.168	16.52	128.38	90.37	-217.5	-166.5	-717	0	0	0	0	0	0	0	0	0	0	0	0	0	0	0	0	0	0	1316	945	0
1651053505067	-101.016	505.08	777.872	14.14	130.48	90.16	-213	-157.5	-723	0	0	0	0	0	0	0	0	0	0	0	0	0	0	0	0	0	0	1301	940	0
1651053505077	-98.088	498.248	785.68	9.52	132.16	90.93	-208.5	-148.5	-729	0	0	0	0	0	0	0	0	0	0	0	0	0	0	0	0	0	0	1324	942	0
1651053505087	-111.752	494.344	781.288	3.01	134.68	91.77	-199.5	-148.5	-741	0	0	0	0	0	0	0	0	0	0	0	0	0	0	0	0	0	0	1322	947	0
1651053505097	-114.68	488.976	777.384	-6.72	138.04	92.4	-198	-145.5	-747	0	0	0	0	0	0	0	0	0	0	0	0	0	0	0	0	0	0	1332	958	0
1651053505107	-112.728	494.344	778.36	-19.74	144.27	95.13	-198	-132	-754.5	0	0	0	0	0	0	0	0	0	0	0	0	0	0	0	0	0	0	1320	952	0
1651053505117	-97.6	495.32	777.872	-21.35	147.91	98.98	-186	-118.5	-759	0	0	0	0	0	0	0	0	0	0	0	0	0	0	0	0	0	0	1330	946	0
1651053505127	-89.792	481.656	772.992	-21	151.41	103.18	-180	-111	-766.5	0	0	0	0	0	0	0	0	0	0	0	0	0	0	0	0	0	0	1315	945	0
1651053505137	-71.736	448.96	760.792	-21.56	155.19	106.19	-174	-99	-766.5	0	0	0	0	0	0	0	0	0	0	0	0	0	0	0	0	0	0	1316	945	0
1651053505147	-63.928	423.584	772.504	-23.52	160.86	107.87	-168	-85.5	-771	0	0	0	0	0	0	0	0	0	0	0	0	0	0	0	0	0	0	1326	949	0
1651053505157	-59.048	409.432	771.528	-24.57	167.37	108.99	-166.5	-79.5	-781.5	0	0	0	0	0	0	0	0	0	0	0	0	0	0	0	0	0	0	1329	950	0
1651053505167	-57.096	385.52	785.68	-27.09	174.58	109.9	-162	-72	-792	0	0	0	0	0	0	0	0	0	0	0	0	0	0	0	0	0	0	1339	960	0
1651053505177	-39.528	368.44	808.616	-30.52	182.14	109.69	-153	-55.5	-798	0	0	0	0	0	0	0	0	0	0	0	0	0	0	0	0	0	0	1335	967	0
1651053505187	-36.112	366.976	875.472	-32.06	186.27	108.36	-142.5	-45	-802.5	0	0	0	0	0	0	0	0	0	0	0	0	0	0	0	0	0	0	1332	950	0
1651053505197	20.496	358.192	953.552	-32.76	192.78	104.72	-142.5	-45	-802.5	0	0	0	0	0	0	0	0	0	0	0	0	0	0	0	0	0	0	1320	948	0
1651053505207	59.536	391.864	1025.776	-36.12	187.74	99.68	-138	-30	-808.5	0	0	0	0	0	0	0	0	0	0	0	0	0	0	0	0	0	0	1314	940	0
1651053505217	61	408.944	1057.496	-40.74	178.5	98	-136.5	-9	-808.5	0	0	0	0	0	0	0	0	0	0	0	0	0	0	0	0	0	0	1319	944	0
1651053505227	72.224	402.112	1062.376	-47.25	168.7	96.67	-132	3	-810	0	0	0	0	0	0	0	0	0	0	0	0	0	0	0	0	0	0	1318	950	0
1651053505237	81.984	383.08	1072.136	-51.94	157.15	97.65	-124.5	16.5	-820.5	0	0	0	0	0	0	0	0	0	0	0	0	0	0	0	0	0	0	1327	951	0
1651053505247	101.504	367.464	1071.16	-54.04	146.86	101.99	-117	30	-828	0	0	0	0	0	0	0	0	0	0	0	0	0	0	0	0	0	0	1325	955	0
1651053505257	122.488	344.528	1081.896	-53.97	136.78	104.86	-114	43.5	-829.5	0	0	0	0	0	0	0	0	0	0	0	0	0	0	0	0	0	0	1322	947	0
1651053505267	139.08	330.864	1067.256	-51.59	129.22	105.14	-108	57	-829.5	0	0	0	0	0	0	0	0	0	0	0	0	0	0	0	0	0	0	1316	948	0
1651053505277	185.928	319.152	1112.64	-45.78	123.2	101.92	-100.5	66	-835.5	0	0	0	0	0	0	0	0	0	0	0	0	0	0	0	0	0	0	1317	951	0
1651053505287	195.688	346.968	1083.36	-31.78	117.25	95.06	-96	75	-831	0	0	0	0	0	0	0	0	0	0	0	0	0	0	0	0	0	0	1332	945	0
1651053505297	174.216	360.632	1060.912	-19.95	113.05	85.54	-94.5	91.5	-826.5	0	0	0	0	0	0	0	0	0	0	0	0	0	0	0	0	0	0	1332	960	0
1651053505307	162.504	385.032	1050.664	-3.22	107.87	71.4	-90	103.5	-835.5	0	0	0	0	0	0	0	0	0	0	0	0	0	0	0	0	0	0	1318	949	0
1651053505317	143.96	438.224	1046.76	5.67	101.36	65.45	-82.5	111	-838.5	0	0	0	0	0	0	0	0	0	0	0	0	0	0	0	0	0	0	1319	942	0
1651053505327	132.736	453.352	997.472	7.21	89.95	63.49	-82.5	121.5	-835.5	0	0	0	0	0	0	0	0	0	0	0	0	0	0	0	0	0	0	1310	936	0
1651053505337	112.24	421.632	954.04	2.31	77.7	65.52	-85.5	126	-837	0	0	0	0	0	0	0	0	0	0	0	0	0	0	0	0	0	0	1312	932	0
1651053505347	95.648	467.504	916.464	2.1	63.98	69.37	-90	136.5	-831	0	0	0	0	0	0	0	0	0	0	0	0	0	0	0	0	0	0	1309	931	0
1651053505357	108.336	467.504	869.616	-9.52	56.42	72.1	-90	148.5	-831	0	0	0	0	0	0	0	0	0	0	0	0	0	0	0	0	0	0	1314	940	0
1651053505367	87.352	447.008	859.368	-22.12	47.39	70.42	-82.5	150	-834	0	0	0	0	0	0	0	0	0	0	0	0	0	0	0	0	0	0	1308	940	0
1651053505377	101.992	447.008	846.68	-28	42.42	66.08	-82.5	157.5	-835.5	0	0	0	0	0	0	0	0	0	0	0	0	0	0	0	0	0	0	1311	950	0
1651053505387	85.888	450.912	814.96	-24.92	40.18	63.07	-81	166.5	-831	0	0	0	0	0	0	0	0	0	0	0	0	0	0	0	0	0	0	1321	938	0
1651053505397	89.304	470.92	793.976	-20.37	39.55	59.29	-76.5	165	-831	0	0	0	0	0	0	0	0	0	0	0	0	0	0	0	0	0	0	1320	956	0
1651053505407	62.952	470.432	775.432	-15.4	39.2	53.34	-79.5	171	-831	0	0	0	0	0	0	0	0	0	0	0	0	0	0	0	0	0	0	1319	948	0
1651053505417	62.952	481.656	794.952	-1.47	40.18	43.4	-78	174	-829.5	0	0	0	0	0	0	0	0	0	0	0	0	0	0	0	0	0	0	1313	948	0
1651053505427	42.944	489.952	818.864	9.03	42.77	38.43	-75	175.5	-831	0	0	0	0	0	0	0	0	0	0	0	0	0	0	0	0	0	0	1325	944	0
1651053505437	74.176	556.32	831.552	30.87	39.69	26.88	-75	177	-832.5	0	0	0	0	0	0	0	0	0	0	0	0	0	0	0	0	0	0	1326	957	0
1651053505447	14.64	554.368	838.384	37.52	36.61	19.46	-73.5	181.5	-829.5	0	0	0	0	0	0	0	0	0	0	0	0	0	0	0	0	0	0	1329	953	0
1651053505457	9.76	560.712	811.544	37.8	35.42	20.51	-78	184.5	-832.5	0	0	0	0	0	0	0	0	0	0	0	0	0	0	0	0	0	0	1329	963	0
1651053505467	-4.88	575.352	783.24	36.4	30.45	20.86	-78	184.5	-832.5	0	0	0	0	0	0	0	0	0	0	0	0	0	0	0	0	0	0	1332	958	0
1651053505477	-5.856	574.376	778.36	30.45	24.43	19.32	-73.5	189	-834	0	0	0	0	0	0	0	0	0	0	0	0	0	0	0	0	0	0	1335	961	0
1651053505487	-41.48	568.52	748.592	20.93	18.27	18.69	-82.5	195	-831	0	0	0	0	0	0	0	0	0	0	0	0	0	0	0	0	0	0	1340	966	0
1651053505497	-45.384	579.744	740.296	8.4	14.14	19.95	-91.5	196.5	-832.5	0	0	0	0	0	0	0	0	0	0	0	0	0	0	0	0	0	0	1335	957	0
1651053505507	70.76	559.248	825.696	-5.25	15.54	19.74	-88.5	193.5	-832.5	0	0	0	0	0	0	0	0	0	0	0	0	0	0	0	0	0	0	1338	969	0
1651053505517	-80.52	588.04	738.832	-16.52	12.25	16.59	-87	192	-828	0	0	0	0	0	0	0	0	0	0	0	0	0	0	0	0	0	0	1338	961	0
1651053505527	-70.76	577.304	731.024	-21.07	15.47	18.06	-84	202.5	-829.5	0	0	0	0	0	0	0	0	0	0	0	0	0	0	0	0	0	0	1336	964	0
1651053505537	-101.992	515.328	749.08	-21.21	19.95	19.6	-87	205.5	-828	0	0	0	0	0	0	0	0	0	0	0	0	0	0	0	0	0	0	1332	959	0
1651053505547	-107.848	470.92	779.336	-17.08	22.68	16.59	-88.5	202.5	-831	0	0	0	0	0	0	0	0	0	0	0	0	0	0	0	0	0	0	1325	954	0
1651053505557	-147.864	404.064	848.144	-9.94	24.22	13.58	-84	204	-832.5	0	0	0	0	0	0	0	0	0	0	0	0	0	0	0	0	0	0	1326	947	0
1651053505567	-213.256	418.216	966.728	6.51	25.83	11.34	-81	207	-832.5	0	0	0	0	0	0	0	0	0	0	0	0	0	0	0	0	0	0	1316	945	0
1651053505577	-230.824	533.872	1118.008	31.01	26.18	2.73	-84	211.5	-831	0	0	0	0	0	0	0	0	0	0	0	0	0	0	0	0	0	0	1309	934	0
1651053505587	-252.784	663.68	1281	38.15	42.42	-6.23	-87	214.5	-828	0	0	0	0	0	0	0	0	0	0	0	0	0	0	0	0	0	0	1295	922	0
1651053505597	-225.456	761.28	1323.944	55.23	52.57	-13.23	-87	214.5	-825	0	0	0	0	0	0	0	0	0	0	0	0	0	0	0	0	0	0	1296	922	0
1651053505607	-226.92	794.464	1243.912	74.97	55.44	-22.82	-91.5	216	-829.5	0	0	0	0	0	0	0	0	0	0	0	0	0	0	0	0	0	0	1296	924	0
1651053505617	-209.84	671.488	1144.848	88.48	59.78	-27.44	-96	219	-831	0	0	0	0	0	0	0	0	0	0	0	0	0	0	0	0	0	0	1289	922	0
1651053505627	-296.704	679.296	1005.768	82.39	54.04	-28.77	-100.5	223.5	-829.5	0	0	0	0	0	0	0	0	0	0	0	0	0	0	0	0	0	0	1298	914	0
1651053505637	-265.472	606.584	948.672	69.58	46.06	-26.25	-106.5	226.5	-823.5	0	0	0	0	0	0	0	0	0	0	0	0	0	0	0	0	0	0	1293	912	0
1651053505647	-277.672	582.184	915	58.66	34.86	-18.97	-118.5	228	-823.5	0	0	0	0	0	0	0	0	0	0	0	0	0	0	0	0	0	0	1286	913	0
1651053505657	-269.864	570.472	913.048	39.13	26.95	-5.74	-123	234	-826.5	0	0	0	0	0	0	0	0	0	0	0	0	0	0	0	0	0	0	1291	915	0
1651053505667	-246.44	584.136	887.672	26.6	15.82	5.46	-124.5	240	-828	0	0	0	0	0	0	0	0	0	0	0	0	0	0	0	0	0	0	1296	922	0
1651053505677	-175.192	622.2	899.384	14.63	4.13	9.03	-126	247.5	-828	0	0	0	0	0	0	0	0	0	0	0	0	0	0	0	0	0	0	1303	920	0
1651053505687	-256.2	646.6	901.336	1.96	-0.07	3.57	-120	249	-828	0	0	0	0	0	0	0	0	0	0	0	0	0	0	0	0	0	0	1305	927	0
1651053505697	-248.88	635.376	897.432	-2.31	-3.36	8.82	-120	249	-825	0	0	0	0	0	0	0	0	0	0	0	0	0	0	0	0	0	0	1304	915	0
1651053505707	-255.712	672.952	876.448	-9.52	0.84	12.46	-124.5	250.5	-823.5	0	0	0	0	0	0	0	0	0	0	0	0	0	0	0	0	0	0	1313	924	0
1651053505717	-258.152	640.256	842.288	-15.47	4.83	9.8	-124.5	249	-823.5	0	0	0	0	0	0	0	0	0	0	0	0	0	0	0	0	0	0	1318	930	0
1651053505727	-270.352	606.584	802.76	-20.23	7	6.44	-123	246	-828	0	0	0	0	0	0	0	0	0	0	0	0	0	0	0	0	0	0	1320	933	0
1651053505737	-271.816	563.64	798.368	-23.1	9.59	7.21	-124.5	241.5	-828	0	0	0	0	0	0	0	0	0	0	0	0	0	0	0	0	0	0	1322	936	0
1651053505747	-255.224	523.136	803.736	-28.77	11.76	9.59	-126	243	-828	0	0	0	0	0	0	0	0	0	0	0	0	0	0	0	0	0	0	1324	940	0
1651053505757	-236.192	465.064	810.08	-36.54	10.99	9.24	-126	250.5	-828	0	0	0	0	0	0	0	0	0	0	0	0	0	0	0	0	0	0	1319	945	0
1651053505767	-218.624	421.144	836.92	-40.67	9.17	6.51	-117	249	-829.5	0	0	0	0	0	0	0	0	0	0	0	0	0	0	0	0	0	0	1312	939	0
1651053505777	-207.4	406.504	852.536	-40.95	6.16	0.7	-114	243	-825	0	0	0	0	0	0	0	0	0	0	0	0	0	0	0	0	0	0	1319	940	0
1651053505787	-222.04	390.888	879.864	-41.02	4.41	-3.36	-106.5	246	-828	0	0	0	0	0	0	0	0	0	0	0	0	0	0	0	0	0	0	1320	937	0
1651053505797	-229.848	391.376	883.768	-36.33	4.76	-5.88	-102	250.5	-829.5	0	0	0	0	0	0	0	0	0	0	0	0	0	0	0	0	0	0	1331	948	0
1651053505807	-231.8	428.464	901.336	-30.24	4.69	-10.5	-102	253.5	-825	0	0	0	0	0	0	0	0	0	0	0	0	0	0	0	0	0	0	1326	945	0
1651053505817	-256.688	465.064	868.64	-20.93	4.62	-19.39	-100.5	252	-828	0	0	0	0	0	0	0	0	0	0	0	0	0	0	0	0	0	0	1317	941	0
1651053505827	-287.432	489.464	835.944	-19.25	7.84	-18.41	-94.5	253.5	-829.5	0	0	0	0	0	0	0	0	0	0	0	0	0	0	0	0	0	0	1328	947	0
1651053505837	-292.8	512.4	805.688	-19.25	13.16	-12.46	-94.5	253.5	-831	0	0	0	0	0	0	0	0	0	0	0	0	0	0	0	0	0	0	1319	947	0
1651053505847	-279.624	504.592	818.376	-19.04	15.89	-5.53	-91.5	252	-831	0	0	0	0	0	0	0	0	0	0	0	0	0	0	0	0	0	0	1323	946	0
1651053505857	-276.696	490.44	819.84	-23.87	18.9	-1.12	-81	255	-825	0	0	0	0	0	0	0	0	0	0	0	0	0	0	0	0	0	0	1329	935	0
1651053505867	-254.736	493.368	846.192	-27.23	20.93	4.2	-82.5	258	-820.5	0	0	0	0	0	0	0	0	0	0	0	0	0	0	0	0	0	0	1324	951	0
1651053505877	-236.68	443.104	874.984	-29.75	21.21	10.01	-87	261	-823.5	0	0	0	0	0	0	0	0	0	0	0	0	0	0	0	0	0	0	1328	935	0
1651053505887	-212.28	480.192	890.6	-29.47	19.74	17.08	-81	264	-826.5	0	0	0	0	0	0	0	0	0	0	0	0	0	0	0	0	0	0	1324	940	0
1651053505897	-209.352	467.016	891.576	-32.97	18.27	17.15	-73.5	258	-826.5	0	0	0	0	0	0	0	0	0	0	0	0	0	0	0	0	0	0	1325	947	0
1651053505908	-192.76	485.56	894.016	-35.7	16.31	14.98	-73.5	256.5	-831	0	0	0	0	0	0	0	0	0	0	0	0	0	0	0	0	0	0	1325	940	0
1651053505918	-195.2	474.824	894.016	-35.14	13.58	14.77	-73.5	262.5	-826.5	0	0	0	0	0	0	0	0	0	0	0	0	0	0	0	0	0	0	1325	954	0
1651053505928	-195.688	494.344	888.16	-29.47	11.55	14.35	-72	262.5	-816	0	0	0	0	0	0	0	0	0	0	0	0	0	0	0	0	0	0	1325	951	0
1651053505938	-195.688	517.768	905.24	-31.01	13.65	13.09	-70.5	267	-822	0	0	0	0	0	0	0	0	0	0	0	0	0	0	0	0	0	0	1326	954	0
1651053505948	-203.008	548.024	923.784	-29.75	15.19	11.9	-66	273	-826.5	0	0	0	0	0	0	0	0	0	0	0	0	0	0	0	0	0	0	1335	951	0
1651053505958	-203.496	567.056	933.056	-23.8	14.77	11.48	-60	270	-825	0	0	0	0	0	0	0	0	0	0	0	0	0	0	0	0	0	0	1332	959	0
1651053505968	-199.104	568.032	938.912	-19.53	13.72	11.69	-57	270	-825	0	0	0	0	0	0	0	0	0	0	0	0	0	0	0	0	0	0	1333	956	0
1651053505978	-205.936	563.64	941.84	-17.57	12.32	11.55	-57	268.5	-828	0	0	0	0	0	0	0	0	0	0	0	0	0	0	0	0	0	0	1322	952	0
1651053505988	-199.104	563.152	951.6	-22.33	11.83	9.73	-57	268.5	-825	0	0	0	0	0	0	0	0	0	0	0	0	0	0	0	0	0	0	1332	952	0
1651053505998	-190.808	562.664	945.256	-23.52	7.28	9.1	-52.5	271.5	-825	0	0	0	0	0	0	0	0	0	0	0	0	0	0	0	0	0	0	1330	951	0
1651053506008	-190.32	548.512	945.744	-23.59	3.57	9.1	-48	274.5	-823.5	0	0	0	0	0	0	0	0	0	0	0	0	0	0	0	0	0	0	1328	950	0
1651053506018	-180.072	539.728	947.208	-24.99	1.33	7.63	-49.5	274.5	-817.5	0	0	0	0	0	0	0	0	0	0	0	0	0	0	0	0	0	0	1342	963	0
1651053506028	-172.264	531.432	973.072	-18.48	-5.04	3.85	-49.5	270	-819	0	0	0	0	0	0	0	0	0	0	0	0	0	0	0	0	0	0	1336	972	0
1651053506038	-182.512	532.408	966.728	-12.04	-8.26	1.61	-48	271.5	-822	0	0	0	0	0	0	0	0	0	0	0	0	0	0	0	0	0	0	1338	969	0
1651053506048	-183.976	522.648	986.248	-7.49	-11.27	-1.47	-48	271.5	-822	0	0	0	0	0	0	0	0	0	0	0	0	0	0	0	0	0	0	1325	962	0
1651053506058	-194.712	527.04	983.32	-3.01	-14.63	-5.6	-48	274.5	-822	0	0	0	0	0	0	0	0	0	0	0	0	0	0	0	0	0	0	1335	960	0
1651053506068	-206.912	519.72	961.36	0.56	-18.06	-8.19	-46.5	271.5	-819	0	0	0	0	0	0	0	0	0	0	0	0	0	0	0	0	0	0	1334	954	0
1651053506078	-207.888	534.848	978.928	2.87	-19.74	-9.8	-46.5	265.5	-822	0	0	0	0	0	0	0	0	0	0	0	0	0	0	0	0	0	0	1335	957	0
1651053506088	-190.32	560.712	1008.208	6.51	-21.56	-12.32	-46.5	264	-823.5	0	0	0	0	0	0	0	0	0	0	0	0	0	0	0	0	0	0	1325	957	0
1651053506098	-200.08	580.72	1006.256	11.69	-23.8	-14.49	-49.5	267	-822	0	0	0	0	0	0	0	0	0	0	0	0	0	0	0	0	0	0	1324	967	0
1651053506108	-201.056	587.552	1012.112	16.45	-26.67	-15.47	-48	271.5	-826.5	0	0	0	0	0	0	0	0	0	0	0	0	0	0	0	0	0	0	1324	957	0
1651053506118	-190.32	582.184	981.856	20.23	-30.1	-14.63	-46.5	270	-828	0	0	0	0	0	0	0	0	0	0	0	0	0	0	0	0	0	0	1323	947	0
1651053506128	-180.072	560.712	957.456	22.75	-35	-11.76	-48	259.5	-831	0	0	0	0	0	0	0	0	0	0	0	0	0	0	0	0	0	0	1321	943	0
1651053506138	-161.528	545.584	930.616	22.96	-38.08	-10.64	-49.5	253.5	-835.5	0	0	0	0	0	0	0	0	0	0	0	0	0	0	0	0	0	0	1316	938	0
1651053506148	-149.816	540.704	915	22.47	-41.23	-10.08	-54	255	-832.5	0	0	0	0	0	0	0	0	0	0	0	0	0	0	0	0	0	0	1319	938	0
1651053506158	-127.856	533.384	935.496	22.82	-44.31	-9.45	-52.5	249	-826.5	0	0	0	0	0	0	0	0	0	0	0	0	0	0	0	0	0	0	1318	931	0
1651053506168	-114.68	544.608	963.8	24.99	-47.74	-10.78	-49.5	244.5	-828	0	0	0	0	0	0	0	0	0	0	0	0	0	0	0	0	0	0	1312	946	0
1651053506178	-99.552	561.2	990.152	29.33	-52.08	-13.09	-48	241.5	-834	0	0	0	0	0	0	0	0	0	0	0	0	0	0	0	0	0	0	1322	937	0
1651053506188	-104.432	584.624	1024.8	34.58	-54.46	-15.54	-54	234	-837	0	0	0	0	0	0	0	0	0	0	0	0	0	0	0	0	0	0	1312	928	0
1651053506198	-97.6	608.048	1039.928	41.3	-56.42	-18.55	-66	231	-843	0	0	0	0	0	0	0	0	0	0	0	0	0	0	0	0	0	0	1316	935	0
1651053506208	-105.408	629.032	1029.192	50.05	-59.22	-22.19	-69	226.5	-846	0	0	0	0	0	0	0	0	0	0	0	0	0	0	0	0	0	0	1314	933	0
1651053506218	-115.168	629.032	1015.04	54.32	-61.25	-24.43	-76.5	219	-844.5	0	0	0	0	0	0	0	0	0	0	0	0	0	0	0	0	0	0	1314	942	0
1651053506228	-103.944	623.176	1004.792	56.98	-64.26	-30.31	-82.5	214.5	-844.5	0	0	0	0	0	0	0	0	0	0	0	0	0	0	0	0	0	0	1317	939	0
1651053506238	-89.304	604.144	1035.048	59.15	-68.74	-30.59	-81	210	-838.5	0	0	0	0	0	0	0	0	0	0	0	0	0	0	0	0	0	0	1314	937	0
1651053506248	-72.224	592.432	1070.184	70.28	-76.44	-21.07	-84	202.5	-846	0	0	0	0	0	0	0	0	0	0	0	0	0	0	0	0	0	0	1326	936	0
1651053506258	-42.456	523.136	1087.752	80.92	-83.44	-10.15	-94.5	199.5	-850.5	0	0	0	0	0	0	0	0	0	0	0	0	0	0	0	0	0	0	1315	937	0
1651053506268	-75.152	532.408	1029.192	102.69	-95.55	-18.55	-103.5	189	-847.5	0	0	0	0	0	0	0	0	0	0	0	0	0	0	0	0	0	0	1323	937	0
1651053506278	-97.112	580.72	1091.656	103.46	-99.96	-30.59	-109.5	181.5	-844.5	0	0	0	0	0	0	0	0	0	0	0	0	0	0	0	0	0	0	1324	941	0
1651053506288	-51.728	627.08	1083.848	116.13	-109.06	-38.22	-120	171	-846	0	0	0	0	0	0	0	0	0	0	0	0	0	0	0	0	0	0	1327	936	0
1651053506298	-101.504	578.28	1019.432	128.8	-115.71	-35.28	-126	162	-847.5	0	0	0	0	0	0	0	0	0	0	0	0	0	0	0	0	0	0	1318	940	0
1651053506308	-111.752	546.072	956.48	117.32	-111.3	-26.88	-139.5	154.5	-849	0	0	0	0	0	0	0	0	0	0	0	0	0	0	0	0	0	0	1321	940	0
1651053506318	-139.568	568.52	929.152	114.03	-106.96	-34.44	-157.5	144	-849	0	0	0	0	0	0	0	0	0	0	0	0	0	0	0	0	0	0	1322	939	0
1651053506328	-103.456	527.04	899.384	104.37	-119.35	-46.41	-165	135	-844.5	0	0	0	0	0	0	0	0	0	0	0	0	0	0	0	0	0	0	1322	937	0
1651053506338	-84.912	448.472	925.248	99.61	-122.36	-47.81	-172.5	124.5	-850.5	0	0	0	0	0	0	0	0	0	0	0	0	0	0	0	0	0	0	1326	935	0
1651053506348	-42.944	469.944	924.76	99.26	-119.35	-46.55	-186	111	-852	0	0	0	0	0	0	0	0	0	0	0	0	0	0	0	0	0	0	1327	949	0
1651053506358	-2.44	494.832	969.168	108.43	-126.56	-54.04	-199.5	100.5	-843	0	0	0	0	0	0	0	0	0	0	0	0	0	0	0	0	0	0	1330	944	0
1651053506368	1.464	535.336	955.504	117.39	-128.73	-62.58	-207	93	-841.5	0	0	0	0	0	0	0	0	0	0	0	0	0	0	0	0	0	0	1327	945	0
1651053506378	-30.256	533.872	952.576	122.99	-127.68	-66.29	-211.5	85.5	-837	0	0	0	0	0	0	0	0	0	0	0	0	0	0	0	0	0	0	1330	935	0
1651053506388	-1.952	586.088	906.216	132.58	-130.83	-71.82	-225	78	-832.5	0	0	0	0	0	0	0	0	0	0	0	0	0	0	0	0	0	0	1337	942	0
1651053506398	-59.536	599.264	869.128	131.88	-130.69	-77.77	-235.5	70.5	-831	0	0	0	0	0	0	0	0	0	0	0	0	0	0	0	0	0	0	1326	946	0
1651053506408	-39.528	604.632	827.16	132.79	-134.12	-78.82	-249	60	-825	0	0	0	0	0	0	0	0	0	0	0	0	0	0	0	0	0	0	1331	944	0
1651053506418	1.952	614.88	869.616	125.58	-136.71	-78.26	-265.5	49.5	-820.5	0	0	0	0	0	0	0	0	0	0	0	0	0	0	0	0	0	0	1335	943	0
1651053506428	21.472	560.712	813.496	120.26	-135.87	-70.07	-273	39	-816	0	0	0	0	0	0	0	0	0	0	0	0	0	0	0	0	0	0	1340	950	0
1651053506438	165.432	580.232	972.096	121.59	-151.41	-73.78	-285	31.5	-805.5	0	0	0	0	0	0	0	0	0	0	0	0	0	0	0	0	0	0	1336	936	0
1651053506448	166.896	618.784	975.512	131.18	-167.37	-78.54	-292.5	24	-801	0	0	0	0	0	0	0	0	0	0	0	0	0	0	0	0	0	0	1338	950	0
1651053506458	133.712	638.304	921.832	137.41	-180.67	-77.56	-304.5	15	-792	0	0	0	0	0	0	0	0	0	0	0	0	0	0	0	0	0	0	1330	945	0
1651053506468	127.368	643.672	896.944	142.03	-186.62	-73.57	-324	6	-780	0	0	0	0	0	0	0	0	0	0	0	0	0	0	0	0	0	0	1327	943	0
1651053506478	48.8	688.08	740.784	143.29	-187.32	-67.97	-340.5	-6	-766.5	0	0	0	0	0	0	0	0	0	0	0	0	0	0	0	0	0	0	1327	934	0
1651053506488	40.016	708.088	675.392	137.48	-183.33	-59.15	-352.5	-22.5	-759	0	0	0	0	0	0	0	0	0	0	0	0	0	0	0	0	0	0	1325	946	0
1651053506498	58.56	697.84	627.568	124.25	-181.51	-51.24	-352.5	-36	-751.5	0	0	0	0	0	0	0	0	0	0	0	0	0	0	0	0	0	0	1329	945	0
1651053506508	125.416	705.16	658.8	114.94	-187.18	-47.46	-363	-36	-738	0	0	0	0	0	0	0	0	0	0	0	0	0	0	0	0	0	0	1334	941	0
1651053506518	206.912	678.808	753.472	115.78	-197.68	-50.4	-376.5	-43.5	-724.5	0	0	0	0	0	0	0	0	0	0	0	0	0	0	0	0	0	0	1328	947	0
1651053506528	246.44	671.488	788.608	125.3	-204.26	-55.93	-379.5	-58.5	-714	0	0	0	0	0	0	0	0	0	0	0	0	0	0	0	0	0	0	1321	938	0
1651053506538	234.24	689.544	784.216	127.47	-216.37	-66.36	-388.5	-66	-700.5	0	0	0	0	0	0	0	0	0	0	0	0	0	0	0	0	0	0	1330	946	0
1651053506548	194.712	703.208	746.64	112.77	-222.11	-72.38	-399	-75	-688.5	0	0	0	0	0	0	0	0	0	0	0	0	0	0	0	0	0	0	1332	951	0
1651053506558	156.16	755.912	706.136	100.87	-223.44	-72.38	-405	-84	-675	0	0	0	0	0	0	0	0	0	0	0	0	0	0	0	0	0	0	1330	939	0
1651053506568	129.808	809.104	610.976	89.39	-221.41	-66.01	-424.5	-91.5	-657	0	0	0	0	0	0	0	0	0	0	0	0	0	0	0	0	0	0	1326	945	0
1651053506578	122.488	833.016	549.488	82.67	-216.93	-54.81	-438	-100.5	-640.5	0	0	0	0	0	0	0	0	0	0	0	0	0	0	0	0	0	0	1328	949	0
1651053506588	89.792	888.648	461.648	83.09	-211.4	-45.64	-439.5	-109.5	-624	0	0	0	0	0	0	0	0	0	0	0	0	0	0	0	0	0	0	1340	953	0
1651053506598	93.208	866.2	440.664	68.18	-207.2	-35.28	-442.5	-114	-616.5	0	0	0	0	0	0	0	0	0	0	0	0	0	0	0	0	0	0	1329	947	0
1651053506608	138.592	829.6	438.712	55.3	-201.6	-29.26	-447	-118.5	-606	0	0	0	0	0	0	0	0	0	0	0	0	0	0	0	0	0	0	1331	952	0
1651053506618	174.216	808.128	434.808	50.54	-196.14	-28.7	-448.5	-126	-597	0	0	0	0	0	0	0	0	0	0	0	0	0	0	0	0	0	0	1333	951	0
1651053506628	230.336	760.792	500.2	55.37	-199.71	-32.13	-453	-133.5	-589.5	0	0	0	0	0	0	0	0	0	0	0	0	0	0	0	0	0	0	1340	965	0
1651053506638	182.512	754.936	520.696	66.64	-207.2	-47.6	-456	-136.5	-574.5	0	0	0	0	0	0	0	0	0	0	0	0	0	0	0	0	0	0	1334	973	0
1651053506648	116.144	766.16	460.184	63.42	-207.97	-50.89	-459	-136.5	-558	0	0	0	0	0	0	0	0	0	0	0	0	0	0	0	0	0	0	1351	970	0
1651053506658	64.416	804.224	373.32	45.43	-202.3	-45.92	-462	-144	-538.5	0	0	0	0	0	0	0	0	0	0	0	0	0	0	0	0	0	0	1337	969	0
1651053506668	31.232	822.768	317.2	21.49	-191.52	-36.4	-466.5	-147	-528	0	0	0	0	0	0	0	0	0	0	0	0	0	0	0	0	0	0	1346	977	0
1651053506678	5.368	862.784	271.328	5.32	-177.66	-28	-471	-151.5	-519	0	0	0	0	0	0	0	0	0	0	0	0	0	0	0	0	0	0	1339	983	0
1651053506688	45.384	903.776	273.28	-13.02	-160.51	-21	-474	-156	-513	0	0	0	0	0	0	0	0	0	0	0	0	0	0	0	0	0	0	1346	985	0
1651053506698	61.488	940.864	259.128	-14.14	-142.1	-25.13	-474	-153	-505.5	0	0	0	0	0	0	0	0	0	0	0	0	0	0	0	0	0	0	1354	996	0
1651053506708	101.016	949.16	282.552	-15.54	-133.49	-34.86	-475.5	-156	-496.5	0	0	0	0	0	0	0	0	0	0	0	0	0	0	0	0	0	0	1362	1007	0
1651053506718	104.432	936.472	252.296	-15.33	-130.2	-44.8	-477	-153	-495	0	0	0	0	0	0	0	0	0	0	0	0	0	0	0	0	0	0	1361	1014	0
1651053506728	113.216	917.44	274.256	-2.94	-132.09	-49.49	-474	-150	-490.5	0	0	0	0	0	0	0	0	0	0	0	0	0	0	0	0	0	0	1365	1024	0
1651053506738	66.856	903.288	246.928	16.52	-132.51	-41.51	-474	-154.5	-484.5	0	0	0	0	0	0	0	0	0	0	0	0	0	0	0	0	0	0	1362	1038	0
1651053506749	64.904	884.744	235.216	16.31	-127.82	-31.78	-481.5	-160.5	-475.5	0	0	0	0	0	0	0	0	0	0	0	0	0	0	0	0	0	0	1373	1040	0
1651053506759	62.952	881.816	216.672	11.9	-122.57	-23.1	-484.5	-162	-466.5	0	0	0	0	0	0	0	0	0	0	0	0	0	0	0	0	0	0	1380	1050	0
1651053506769	50.752	857.416	203.008	5.6	-116.06	-14.21	-486	-162	-459	0	0	0	0	0	0	0	0	0	0	0	0	0	0	0	0	0	0	1378	1050	0
1651053506779	38.064	830.576	178.608	0.28	-108.01	-7.84	-484.5	-163.5	-451.5	0	0	0	0	0	0	0	0	0	0	0	0	0	0	0	0	0	0	1363	1053	0
1651053506789	17.568	820.328	156.16	-4.55	-99.19	-4.2	-481.5	-165	-444	0	0	0	0	0	0	0	0	0	0	0	0	0	0	0	0	0	0	1371	1060	0
1651053506799	-34.16	842.776	114.68	-10.15	-87.5	3.99	-483	-166.5	-436.5	0	0	0	0	0	0	0	0	0	0	0	0	0	0	0	0	0	0	1362	1059	0
1651053506809	41.48	880.352	165.92	-10.08	-75.81	7.84	-481.5	-166.5	-432	0	0	0	0	0	0	0	0	0	0	0	0	0	0	0	0	0	0	1359	1043	0
1651053506819	42.944	961.36	128.344	-0.56	-65.59	7.98	-484.5	-163.5	-435	0	0	0	0	0	0	0	0	0	0	0	0	0	0	0	0	0	0	1354	1028	0
1651053506829	35.136	993.08	122.976	8.05	-60.2	4.41	-486	-165	-433.5	0	0	0	0	0	0	0	0	0	0	0	0	0	0	0	0	0	0	1343	1011	0
1651053506839	96.624	1005.768	176.656	25.34	-64.82	-3.29	-487.5	-166.5	-430.5	0	0	0	0	0	0	0	0	0	0	0	0	0	0	0	0	0	0	1341	1001	0
1651053506849	100.528	1007.232	184.464	33.25	-71.47	-7.28	-484.5	-169.5	-424.5	0	0	0	0	0	0	0	0	0	0	0	0	0	0	0	0	0	0	1322	985	0
1651053506859	94.672	981.368	185.928	34.79	-76.72	-6.02	-487.5	-171	-414	0	0	0	0	0	0	0	0	0	0	0	0	0	0	0	0	0	0	1327	978	0
1651053506869	83.448	982.344	223.016	26.6	-76.51	1.47	-487.5	-171	-414	0	0	0	0	0	0	0	0	0	0	0	0	0	0	0	0	0	0	1330	972	0
1651053506879	74.664	1014.064	176.656	16.94	-71.61	11.76	-490.5	-168	-406.5	0	0	0	0	0	0	0	0	0	0	0	0	0	0	0	0	0	0	1334	970	0
1651053506889	39.04	1005.28	136.64	5.88	-63.91	22.96	-484.5	-169.5	-400.5	0	0	0	0	0	0	0	0	0	0	0	0	0	0	0	0	0	0	1326	954	0
1651053506899	34.16	1017.48	132.248	-1.26	-59.5	30.38	-481.5	-177	-400.5	0	0	0	0	0	0	0	0	0	0	0	0	0	0	0	0	0	0	1328	968	0
1651053506909	43.432	1035.536	149.328	-0.77	-56.56	33.88	-480	-180	-396	0	0	0	0	0	0	0	0	0	0	0	0	0	0	0	0	0	0	1326	948	0
1651053506919	22.936	1046.272	126.392	7	-56.56	31.29	-474	-177	-394.5	0	0	0	0	0	0	0	0	0	0	0	0	0	0	0	0	0	0	1316	938	0
1651053506929	28.304	1026.264	119.072	18.55	-59.22	27.58	-471	-177	-394.5	0	0	0	0	0	0	0	0	0	0	0	0	0	0	0	0	0	0	1318	934	0
1651053506939	23.424	1045.784	145.424	28	-60.97	21.35	-474	-180	-388.5	0	0	0	0	0	0	0	0	0	0	0	0	0	0	0	0	0	0	1304	926	0
1651053506949	28.792	1052.616	160.064	44.1	-57.4	14.98	-471	-181.5	-378	0	0	0	0	0	0	0	0	0	0	0	0	0	0	0	0	0	0	1312	932	0
1651053506958	2.44	1096.048	188.856	58.59	-56.28	7.63	-471	-186	-369	0	0	0	0	0	0	0	0	0	0	0	0	0	0	0	0	0	0	1310	927	0
1651053506968	-11.712	1110.688	161.528	67.97	-51.94	6.02	-471	-190.5	-363	0	0	0	0	0	0	0	0	0	0	0	0	0	0	0	0	0	0	1308	929	0
1651053506978	-36.6	1151.192	149.816	79.17	-37.87	9.1	-471	-189	-355.5	0	0	0	0	0	0	0	0	0	0	0	0	0	0	0	0	0	0	1311	927	0
1651053506988	-94.672	1209.264	91.256	95.13	-13.02	19.04	-472.5	-181.5	-349.5	0	0	0	0	0	0	0	0	0	0	0	0	0	0	0	0	0	0	1314	943	0
1651053506998	-150.304	1216.584	-7.808	122.01	18.34	40.04	-468	-181.5	-339	0	0	0	0	0	0	0	0	0	0	0	0	0	0	0	0	0	0	1312	936	0
1651053507008	-193.736	1248.792	-149.816	162.05	56.91	68.39	-465	-190.5	-337.5	0	0	0	0	0	0	0	0	0	0	0	0	0	0	0	0	0	0	1312	926	0
1651053507018	-248.88	1263.92	-275.72	189.98	101.08	96.53	-460.5	-196.5	-334.5	0	0	0	0	0	0	0	0	0	0	0	0	0	0	0	0	0	0	1293	900	0
1651053507028	-249.856	1314.672	-411.384	186.48	144.55	110.53	-454.5	-199.5	-328.5	0	0	0	0	0	0	0	0	0	0	0	0	0	0	0	0	0	0	1298	925	0
1651053507038	-183	1289.784	-502.64	151.76	151.76	112.98	-445.5	-204	-327	0	0	0	0	0	0	0	0	0	0	0	0	0	0	0	0	0	0	1289	926	0
1651053507048	-176.168	1225.368	-305	83.72	128.03	106.68	-438	-216	-325.5	0	0	0	0	0	0	0	0	0	0	0	0	0	0	0	0	0	0	1313	933	0
1651053507058	-231.8	1153.632	-330.376	58.24	141.33	105.28	-430.5	-222	-327	0	0	0	0	0	0	0	0	0	0	0	0	0	0	0	0	0	0	1324	953	0
1651053507068	-252.296	1069.208	-277.672	67.06	140.49	119.21	-418.5	-226.5	-327	0	0	0	0	0	0	0	0	0	0	0	0	0	0	0	0	0	0	1338	963	0
1651053507078	-232.288	1000.888	-135.176	74.06	141.4	136.57	-412.5	-235.5	-333	0	0	0	0	0	0	0	0	0	0	0	0	0	0	0	0	0	0	1338	957	0
1651053507088	-137.616	984.784	-59.536	88.76	143.36	136.64	-403.5	-244.5	-340.5	0	0	0	0	0	0	0	0	0	0	0	0	0	0	0	0	0	0	1333	958	0
1651053507098	-105.408	1004.304	-46.848	96.95	159.46	158.69	-394.5	-253.5	-348	0	0	0	0	0	0	0	0	0	0	0	0	0	0	0	0	0	0	1307	940	0
1651053507108	-26.84	977.464	-27.816	99.47	175.98	188.93	-384	-264	-355.5	0	0	0	0	0	0	0	0	0	0	0	0	0	0	0	0	0	0	1312	933	0
1651053507118	107.36	904.752	-32.208	113.61	202.09	200.48	-373.5	-274.5	-361.5	0	0	0	0	0	0	0	0	0	0	0	0	0	0	0	0	0	0	1308	922	0
1651053507128	217.648	922.32	-135.176	146.3	205.31	190.61	-360	-280.5	-373.5	0	0	0	0	0	0	0	0	0	0	0	0	0	0	0	0	0	0	1313	938	0
1651053507138	242.536	932.568	-235.216	164.15	183.75	173.39	-345	-285	-382.5	0	0	0	0	0	0	0	0	0	0	0	0	0	0	0	0	0	0	1324	947	0
1651053507148	183	920.368	-360.632	151.06	175.07	153.79	-328.5	-291	-391.5	0	0	0	0	0	0	0	0	0	0	0	0	0	0	0	0	0	0	1334	960	0
1651053507158	233.752	893.04	-357.704	118.65	191.94	144.06	-313.5	-297	-400.5	0	0	0	0	0	0	0	0	0	0	0	0	0	0	0	0	0	0	1341	961	0
1651053507168	233.264	888.648	-288.896	79.59	210.84	130.06	-306	-300	-403.5	0	0	0	0	0	0	0	0	0	0	0	0	0	0	0	0	0	0	1335	961	0
1651053507178	203.984	794.952	-164.944	46.83	221.34	116.9	-301.5	-304.5	-417	0	0	0	0	0	0	0	0	0	0	0	0	0	0	0	0	0	0	1332	955	0
1651053507188	126.88	732.976	-26.352	26.04	221.76	111.51	-291	-309	-430.5	0	0	0	0	0	0	0	0	0	0	0	0	0	0	0	0	0	0	1330	953	0
1651053507198	189.832	679.296	148.84	19.88	223.86	116.2	-277.5	-310.5	-448.5	0	0	0	0	0	0	0	0	0	0	0	0	0	0	0	0	0	0	1326	949	0
1651053507208	326.96	685.64	273.28	25.41	218.12	122.99	-267	-304.5	-466.5	0	0	0	0	0	0	0	0	0	0	0	0	0	0	0	0	0	0	1327	946	0
1651053507218	407.968	703.696	313.296	26.74	204.75	129.78	-255	-300	-481.5	0	0	0	0	0	0	0	0	0	0	0	0	0	0	0	0	0	0	1323	941	0
1651053507228	493.856	683.2	327.936	31.15	184.94	137.69	-247.5	-306	-499.5	0	0	0	0	0	0	0	0	0	0	0	0	0	0	0	0	0	0	1314	937	0
1651053507238	558.272	709.064	282.064	46.06	162.12	144.27	-237	-306	-516	0	0	0	0	0	0	0	0	0	0	0	0	0	0	0	0	0	0	1308	939	0
1651053507248	593.408	644.648	155.184	60.69	135.87	142.59	-226.5	-303	-523.5	0	0	0	0	0	0	0	0	0	0	0	0	0	0	0	0	0	0	1317	936	0
1651053507258	566.568	646.112	83.936	62.44	131.39	129.29	-220.5	-301.5	-528	0	0	0	0	0	0	0	0	0	0	0	0	0	0	0	0	0	0	1311	945	0
1651053507268	554.856	603.168	39.528	58.31	135.45	111.79	-211.5	-300	-546	0	0	0	0	0	0	0	0	0	0	0	0	0	0	0	0	0	0	1319	945	0
1651053507278	540.704	665.632	21.96	45.22	136.36	94.15	-199.5	-301.5	-553.5	0	0	0	0	0	0	0	0	0	0	0	0	0	0	0	0	0	0	1322	950	0
1651053507288	565.592	596.336	119.072	26.32	147.84	97.86	-193.5	-298.5	-559.5	0	0	0	0	0	0	0	0	0	0	0	0	0	0	0	0	0	0	1326	960	0
1651053507298	598.776	605.608	163.48	21.56	146.58	90.3	-193.5	-295.5	-568.5	0	0	0	0	0	0	0	0	0	0	0	0	0	0	0	0	0	0	1322	960	0
1651053507308	666.12	612.928	170.8	5.74	141.26	73.92	-187.5	-292.5	-582	0	0	0	0	0	0	0	0	0	0	0	0	0	0	0	0	0	0	1322	952	0
1651053507318	654.896	639.28	200.08	5.6	146.16	71.61	-186	-289.5	-600	0	0	0	0	0	0	0	0	0	0	0	0	0	0	0	0	0	0	1316	965	0
1651053507328	639.768	613.904	171.776	31.78	154.21	87.01	-183	-282	-603	0	0	0	0	0	0	0	0	0	0	0	0	0	0	0	0	0	0	1328	975	0
1651053507338	581.696	529.968	173.24	57.12	158.48	108.78	-174	-273	-610.5	0	0	0	0	0	0	0	0	0	0	0	0	0	0	0	0	0	0	1333	979	0
1651053507348	559.248	481.656	201.544	49.49	150.5	136.15	-168	-264	-618	0	0	0	0	0	0	0	0	0	0	0	0	0	0	0	0	0	0	1343	996	0
1651053507358	594.872	439.688	303.536	19.18	136.57	155.61	-162	-259.5	-636	0	0	0	0	0	0	0	0	0	0	0	0	0	0	0	0	0	0	1338	991	0
1651053507368	619.272	545.096	318.664	-24.57	118.16	172.48	-151.5	-253.5	-648	0	0	0	0	0	0	0	0	0	0	0	0	0	0	0	0	0	0	1330	984	0
1651053507378	684.664	466.528	562.664	-66.08	75.67	190.26	-136.5	-250.5	-649.5	0	0	0	0	0	0	0	0	0	0	0	0	0	0	0	0	0	0	1339	986	0
1651053507388	853.512	349.408	392.352	-86.03	56.63	217.14	-127.5	-247.5	-657	0	0	0	0	0	0	0	0	0	0	0	0	0	0	0	0	0	0	1338	992	0
1651053507398	893.04	344.528	335.744	-104.58	70.42	212.03	-109.5	-246	-658.5	0	0	0	0	0	0	0	0	0	0	0	0	0	0	0	0	0	0	1337	1024	0
1651053507408	1070.672	296.216	492.392	-100.73	58.87	192.43	-87	-244.5	-666	0	0	0	0	0	0	0	0	0	0	0	0	0	0	0	0	0	0	2001	2174	0
1651053507418	905.24	178.12	320.128	-75.39	39.55	163.59	-72	-240	-676.5	0	0	0	0	0	0	0	0	0	0	0	0	0	0	0	0	0	0	34056	34125	0
1651053507428	992.104	59.048	344.528	-29.96	21.91	96.46	-54	-238.5	-675	0	0	0	0	0	0	0	0	0	0	0	0	0	0	0	0	0	0	30303	32675	0
1651053507438	929.152	96.136	445.544	18.55	15.61	21.49	-45	-234	-679.5	0	0	0	0	0	0	0	0	0	0	0	0	0	0	0	0	0	0	17889	20021	0
1651053507448	730.536	195.688	479.704	41.65	12.88	2.45	-48	-229.5	-682.5	0	0	0	0	0	0	0	0	0	0	0	0	0	0	0	0	0	0	11962	13519	0
1651053507458	839.36	229.848	496.784	62.51	42.98	33.53	-43.5	-229.5	-681	0	0	0	0	0	0	0	0	0	0	0	0	0	0	0	0	0	0	8871	9979	0
1651053507468	1018.456	327.936	484.096	36.4	60.9	44.24	-43.5	-225	-681	0	0	0	0	0	0	0	0	0	0	0	0	0	0	0	0	0	0	6984	7701	0
1651053507478	1037.976	379.176	406.016	-12.81	100.8	52.78	-46.5	-220.5	-684	0	0	0	0	0	0	0	0	0	0	0	0	0	0	0	0	0	0	5785	6244	0
1651053507488	1033.584	372.344	398.208	-72.03	149.1	64.82	-45	-220.5	-690	0	0	0	0	0	0	0	0	0	0	0	0	0	0	0	0	0	0	4948	5339	0
1651053507498	961.36	378.2	443.104	-122.78	193.27	75.39	-39	-216	-697.5	0	0	0	0	0	0	0	0	0	0	0	0	0	0	0	0	0	0	4381	4832	0
1651053507508	911.584	328.424	464.576	-138.04	209.58	76.23	-31.5	-199.5	-705	0	0	0	0	0	0	0	0	0	0	0	0	0	0	0	0	0	0	3990	4585	0
1651053507518	824.72	310.856	469.944	-129.22	202.23	80.22	-16.5	-189	-708	0	0	0	0	0	0	0	0	0	0	0	0	0	0	0	0	0	0	3730	4487	0
1651053507528	792.024	232.776	471.408	-103.81	188.72	82.74	-1.5	-174	-718.5	0	0	0	0	0	0	0	0	0	0	0	0	0	0	0	0	0	0	3589	4512	0
1651053507538	757.376	162.992	534.36	-83.02	158.83	71.12	7.5	-157.5	-727.5	0	0	0	0	0	0	0	0	0	0	0	0	0	0	0	0	0	0	3563	4820	0
1651053507548	748.592	163.48	594.384	-59.15	125.3	68.04	15	-147	-736.5	0	0	0	0	0	0	0	0	0	0	0	0	0	0	0	0	0	0	3683	5663	0
1651053507558	772.504	182.512	656.848	-32.83	93.38	64.26	27	-139.5	-745.5	0	0	0	0	0	0	0	0	0	0	0	0	0	0	0	0	0	0	4159	7210	0
1651053507568	725.656	175.192	698.328	-32.69	88.06	70.91	34.5	-135	-750	0	0	0	0	0	0	0	0	0	0	0	0	0	0	0	0	0	0	5395	10098	0
1651053507578	773.968	229.848	757.864	-32.41	97.02	83.79	37.5	-124.5	-748.5	0	0	0	0	0	0	0	0	0	0	0	0	0	0	0	0	0	0	8431	16155	0
1651053507589	769.576	187.392	860.344	-41.09	124.95	95.06	42	-114	-754.5	0	0	0	0	0	0	0	0	0	0	0	0	0	0	0	0	0	0	17035	31112	0
1651053507599	794.464	147.864	924.272	-40.04	166.88	105.49	48	-102	-760.5	0	0	0	0	0	0	0	0	0	0	0	0	0	0	0	0	0	0	47267	72676	0
1651053507609	592.432	36.6	845.704	-43.96	210.07	114.94	60	-85.5	-762	0	0	0	0	0	0	0	0	0	0	0	0	0	0	0	0	0	0	106795	138374	0
1651053507619	399.184	-21.96	763.232	-67.13	260.12	146.51	67.5	-69	-768	0	0	0	0	0	0	0	0	0	0	0	0	0	0	0	0	0	0	87493	101228	0
1651053507629	292.8	13.664	837.408	-89.46	300.51	201.18	69	-52.5	-777	0	0	0	0	0	0	0	0	0	0	0	0	0	0	0	0	0	0	61273	76883	0
1651053507639	420.168	3.416	864.248	-98.49	313.46	243.88	79.5	-25.5	-783	0	0	0	0	0	0	0	0	0	0	0	0	0	0	0	0	0	0	55425	71331	0
1651053507649	572.424	-87.352	854.976	-75.11	280.21	247.24	96	12	-780	0	0	0	0	0	0	0	0	0	0	0	0	0	0	0	0	0	0	54033	69335	0
1651053507659	550.952	-28.304	680.272	-18.62	138.32	222.81	108	46.5	-783	0	0	0	0	0	0	0	0	0	0	0	0	0	0	0	0	0	0	54586	69341	0
1651053507669	530.944	27.816	611.952	3.36	63.14	190.12	117	67.5	-789	0	0	0	0	0	0	0	0	0	0	0	0	0	0	0	0	0	0	57151	70589	0
1651053507679	470.92	93.696	671.488	9.31	28	171.29	117	79.5	-790.5	0	0	0	0	0	0	0	0	0	0	0	0	0	0	0	0	0	0	59319	71627	0
1651053507689	394.792	99.064	749.568	25.97	24.08	155.82	111	96	-793.5	0	0	0	0	0	0	0	0	0	0	0	0	0	0	0	0	0	0	61320	81010	0
1651053507699	339.16	35.136	754.936	39.83	32.27	140.21	108	105	-795	0	0	0	0	0	0	0	0	0	0	0	0	0	0	0	0	0	0	90465	108410	0
1651053507709	266.448	-20.984	724.192	42.98	42.56	136.43	112.5	112.5	-793.5	0	0	0	0	0	0	0	0	0	0	0	0	0	0	0	0	0	0	115366	129190	0
1651053507719	284.016	-71.736	789.096	35.49	52.08	139.37	115.5	127.5	-793.5	0	0	0	0	0	0	0	0	0	0	0	0	0	0	0	0	0	0	133473	145736	0
1651053507729	349.408	-135.664	806.176	24.5	65.87	155.89	114	136.5	-798	0	0	0	0	0	0	0	0	0	0	0	0	0	0	0	0	0	0	137294	153729	0
1651053507739	543.144	-146.4	910.608	11.55	88.13	143.5	111	147	-799.5	0	0	0	0	0	0	0	0	0	0	0	0	0	0	0	0	0	0	153051	175080	0
1651053507749	389.424	-197.64	832.04	0.49	114.66	121.03	111	157.5	-793.5	0	0	0	0	0	0	0	0	0	0	0	0	0	0	0	0	0	0	163804	187003	0
1651053507759	401.136	-40.992	897.432	-35.63	122.43	124.18	108	165	-789	0	0	0	0	0	0	0	0	0	0	0	0	0	0	0	0	0	0	161815	179560	0
1651053507769	379.176	0	917.928	-17.01	145.46	115.57	105	180	-792	0	0	0	0	0	0	0	0	0	0	0	0	0	0	0	0	0	0	129771	148120	0
1651053507779	459.696	124.928	920.856	37.38	136.78	48.65	108	201	-795	0	0	0	0	0	0	0	0	0	0	0	0	0	0	0	0	0	0	128646	150217	0
1651053507789	523.136	109.312	919.392	85.47	119.42	-28.77	108	214.5	-789	0	0	0	0	0	0	0	0	0	0	0	0	0	0	0	0	0	0	132034	147285	0
1651053507799	394.792	-191.784	1036.512	89.95	75.32	-56.77	102	225	-793.5	0	0	0	0	0	0	0	0	0	0	0	0	0	0	0	0	0	0	140383	150951	0
1651053507809	358.192	-36.6	1109.224	75.32	50.33	-10.29	91.5	234	-798	0	0	0	0	0	0	0	0	0	0	0	0	0	0	0	0	0	0	146191	144353	0
1651053507819	368.928	-137.128	1258.064	47.46	29.82	17.64	84	234	-798	0	0	0	0	0	0	0	0	0	0	0	0	0	0	0	0	0	0	156731	144998	0
1651053507829	324.52	-132.248	1218.536	35.77	24.5	9.38	84	240	-799.5	0	0	0	0	0	0	0	0	0	0	0	0	0	0	0	0	0	0	142518	122604	0
1651053507839	160.552	-211.792	1179.496	32.76	39.62	27.37	85.5	244.5	-799.5	0	0	0	0	0	0	0	0	0	0	0	0	0	0	0	0	0	0	94630	72977	0
1651053507849	103.456	-177.632	1154.608	37.94	59.01	105.98	82.5	255	-802.5	0	0	0	0	0	0	0	0	0	0	0	0	0	0	0	0	0	0	72995	57398	0
1651053507859	111.752	-273.28	1124.84	18.48	81.55	226.94	73.5	265.5	-807	0	0	0	0	0	0	0	0	0	0	0	0	0	0	0	0	0	0	69805	54728	0
1651053507869	229.36	-276.696	1086.776	-6.09	114.38	277.76	66	271.5	-808.5	0	0	0	0	0	0	0	0	0	0	0	0	0	0	0	0	0	0	63844	49489	0
1651053507879	269.864	-305	1097.024	-5.95	157.64	310.31	58.5	285	-799.5	0	0	0	0	0	0	0	0	0	0	0	0	0	0	0	0	0	0	48257	35865	0
1651053507889	642.208	35.624	1081.408	32.62	196.14	238	54	307.5	-789	0	0	0	0	0	0	0	0	0	0	0	0	0	0	0	0	0	0	28506	19334	0
1651053507899	447.984	-52.704	955.992	59.29	199.36	111.37	48	333	-784.5	0	0	0	0	0	0	0	0	0	0	0	0	0	0	0	0	0	0	14751	9427	0
1651053507909	502.152	-100.528	929.64	77.56	154.28	42.49	37.5	349.5	-780	0	0	0	0	0	0	0	0	0	0	0	0	0	0	0	0	0	0	9399	5939	0
1651053507919	376.736	-106.872	973.56	84.28	155.96	30.52	30	363	-772.5	0	0	0	0	0	0	0	0	0	0	0	0	0	0	0	0	0	0	7658	4860	0
1651053507929	230.336	-236.68	1095.072	79.24	171.29	32.9	18	378	-768	0	0	0	0	0	0	0	0	0	0	0	0	0	0	0	0	0	0	7128	4518	0
1651053507939	127.368	-138.104	1251.232	81.69	179.13	5.39	6	396	-768	0	0	0	0	0	0	0	0	0	0	0	0	0	0	0	0	0	0	6800	4287	0
1651053507949	21.472	-146.888	1267.824	108.36	198.66	-5.39	0	411	-766.5	0	0	0	0	0	0	0	0	0	0	0	0	0	0	0	0	0	0	6718	4220	0
1651053507959	-45.384	-228.872	1248.304	115.36	219.1	1.61	-4.5	424.5	-760.5	0	0	0	0	0	0	0	0	0	0	0	0	0	0	0	0	0	0	7041	4442	0
1651053507969	-101.992	-233.264	1219.024	80.43	231.49	33.6	-15	442.5	-751.5	0	0	0	0	0	0	0	0	0	0	0	0	0	0	0	0	0	0	7761	4929	0
1651053507979	-119.072	-302.072	1178.52	49.84	239.05	62.09	-30	457.5	-736.5	0	0	0	0	0	0	0	0	0	0	0	0	0	0	0	0	0	0	8187	5210	0
1651053507989	-20.984	-206.912	1089.216	47.32	242.62	92.19	-37.5	471	-720	0	0	0	0	0	0	0	0	0	0	0	0	0	0	0	0	0	0	8360	5268	0
1651053507999	-52.216	-211.792	975.024	40.81	244.72	94.15	-45	489	-709.5	0	0	0	0	0	0	0	0	0	0	0	0	0	0	0	0	0	0	7971	4982	0
1651053508009	-35.624	-223.504	803.736	29.96	227.29	126.84	-54	507	-694.5	0	0	0	0	0	0	0	0	0	0	0	0	0	0	0	0	0	0	7354	4577	0
1651053508019	-14.152	-154.696	717.848	11.48	192.29	155.33	-58.5	525	-679.5	0	0	0	0	0	0	0	0	0	0	0	0	0	0	0	0	0	0	6696	4156	0
1651053508029	58.56	-72.224	687.592	8.68	147.7	163.03	-66	538.5	-666	0	0	0	0	0	0	0	0	0	0	0	0	0	0	0	0	0	0	5961	3666	0
1651053508039	10.248	-40.016	753.96	19.25	108.71	128.17	-79.5	546	-657	0	0	0	0	0	0	0	0	0	0	0	0	0	0	0	0	0	0	5095	3076	0
1651053508049	-80.52	-97.6	824.232	28.63	78.68	86.17	-90	553.5	-652.5	0	0	0	0	0	0	0	0	0	0	0	0	0	0	0	0	0	0	4253	2533	0
1651053508059	-178.12	-112.728	908.168	32.2	73.71	65.24	-100.5	562.5	-648	0	0	0	0	0	0	0	0	0	0	0	0	0	0	0	0	0	0	3636	2166	0
1651053508069	-245.952	-120.536	955.504	48.79	107.73	61.53	-111	573	-642	0	0	0	0	0	0	0	0	0	0	0	0	0	0	0	0	0	0	3186	1885	0
1651053508079	-308.416	-114.68	947.696	58.1	146.65	61.04	-120	576	-631.5	0	0	0	0	0	0	0	0	0	0	0	0	0	0	0	0	0	0	2873	1701	0
1651053508089	-347.944	-67.344	981.368	59.43	188.09	65.24	-123	579	-615	0	0	0	0	0	0	0	0	0	0	0	0	0	0	0	0	0	0	2532	1479	0
1651053508099	-402.112	-79.056	956.968	50.82	224.84	68.39	-129	585	-598.5	0	0	0	0	0	0	0	0	0	0	0	0	0	0	0	0	0	0	2087	1241	0
1651053508109	-391.864	-55.144	963.312	44.1	257.11	70.42	-138	594	-585	0	0	0	0	0	0	0	0	0	0	0	0	0	0	0	0	0	0	1755	1086	0
1651053508119	-391.864	18.544	966.24	40.53	274.82	63.28	-145.5	604.5	-571.5	0	0	0	0	0	0	0	0	0	0	0	0	0	0	0	0	0	0	1558	1023	0
1651053508129	-367.952	59.536	954.04	34.09	273.56	58.8	-150	616.5	-552	0	0	0	0	0	0	0	0	0	0	0	0	0	0	0	0	0	0	1485	1008	0
1651053508139	-348.432	78.08	936.96	26.6	256.06	52.64	-157.5	628.5	-528	0	0	0	0	0	0	0	0	0	0	0	0	0	0	0	0	0	0	1442	991	0
1651053508149	-367.464	81.496	925.736	24.01	232.26	45.92	-162	633	-505.5	0	0	0	0	0	0	0	0	0	0	0	0	0	0	0	0	0	0	1395	981	0
1651053508159	-439.2	95.648	919.392	16.24	205.66	40.39	-166.5	640.5	-486	0	0	0	0	0	0	0	0	0	0	0	0	0	0	0	0	0	0	1390	988	0
1651053508169	-618.784	111.752	944.28	-2.73	159.32	47.53	-174	646.5	-468	0	0	0	0	0	0	0	0	0	0	0	0	0	0	0	0	0	0	1387	982	0
1651053508179	-741.76	131.76	928.176	-16.66	123.83	52.01	-180	654	-456	0	0	0	0	0	0	0	0	0	0	0	0	0	0	0	0	0	0	1378	995	0
1651053508189	-810.568	147.376	915.488	-26.39	90.23	56.56	-186	655.5	-451.5	0	0	0	0	0	0	0	0	0	0	0	0	0	0	0	0	0	0	1364	998	0
1651053508199	-839.848	129.32	903.776	-31.5	65.24	59.36	-192	652.5	-444	0	0	0	0	0	0	0	0	0	0	0	0	0	0	0	0	0	0	1372	992	0
1651053508209	-826.672	106.384	914.024	-34.58	48.16	60.48	-198	654	-432	0	0	0	0	0	0	0	0	0	0	0	0	0	0	0	0	0	0	1377	1005	0
1651053508219	-770.064	75.152	902.312	-34.37	43.33	65.52	-201	657	-426	0	0	0	0	0	0	0	0	0	0	0	0	0	0	0	0	0	0	1380	1008	0
1651053508229	-678.32	84.424	872.544	-30.87	53.2	73.64	-204	654	-421.5	0	0	0	0	0	0	0	0	0	0	0	0	0	0	0	0	0	0	1373	990	0
1651053508239	-647.576	205.936	807.152	-27.58	69.72	84.07	-213	651	-415.5	0	0	0	0	0	0	0	0	0	0	0	0	0	0	0	0	0	0	1360	984	0
1651053508249	-514.84	81.496	744.2	-26.32	83.23	101.01	-222	651	-408	0	0	0	0	0	0	0	0	0	0	0	0	0	0	0	0	0	0	1348	988	0
1651053508259	-491.416	154.696	696.864	-28.77	90.09	101.78	-228	654	-400.5	0	0	0	0	0	0	0	0	0	0	0	0	0	0	0	0	0	0	1347	977	0
1651053508269	-551.44	196.664	634.888	-16.52	90.72	84.91	-240	657	-394.5	0	0	0	0	0	0	0	0	0	0	0	0	0	0	0	0	0	0	1355	982	0
1651053508279	-603.656	213.744	579.256	-12.11	83.09	76.86	-246	652.5	-388.5	0	0	0	0	0	0	0	0	0	0	0	0	0	0	0	0	0	0	1356	986	0
1651053508289	-635.376	240.584	573.4	-13.02	72.52	68.18	-247.5	649.5	-382.5	0	0	0	0	0	0	0	0	0	0	0	0	0	0	0	0	0	0	1361	998	0
1651053508299	-674.904	284.504	589.992	-12.46	58.52	57.12	-264	649.5	-376.5	0	0	0	0	0	0	0	0	0	0	0	0	0	0	0	0	0	0	1364	995	0
1651053508309	-688.08	264.008	634.888	-11.76	49.56	56.7	-276	646.5	-370.5	0	0	0	0	0	0	0	0	0	0	0	0	0	0	0	0	0	0	1345	991	0
1651053508319	-695.888	269.376	688.568	-11.97	42	55.02	-276	645	-364.5	0	0	0	0	0	0	0	0	0	0	0	0	0	0	0	0	0	0	1328	969	0
1651053508329	-695.888	258.64	718.336	-15.12	37.8	56.84	-282	643.5	-364.5	0	0	0	0	0	0	0	0	0	0	0	0	0	0	0	0	0	0	1317	958	0
1651053508339	-683.688	254.736	696.864	-17.64	37.52	63.56	-288	651	-361.5	0	0	0	0	0	0	0	0	0	0	0	0	0	0	0	0	0	0	1315	948	0
1651053508349	-683.2	261.568	673.44	-18.55	38.01	67.48	-294	652.5	-361.5	0	0	0	0	0	0	0	0	0	0	0	0	0	0	0	0	0	0	1331	947	0
1651053508359	-670.024	271.328	632.936	-20.09	35.84	69.3	-301.5	643.5	-361.5	0	0	0	0	0	0	0	0	0	0	0	0	0	0	0	0	0	0	1349	960	0
1651053508369	-695.888	299.632	591.944	-21.35	31.08	67.55	-306	642	-355.5	0	0	0	0	0	0	0	0	0	0	0	0	0	0	0	0	0	0	1356	974	0
1651053508379	-708.088	309.392	568.032	-25.97	25.83	65.52	-310.5	642	-351	0	0	0	0	0	0	0	0	0	0	0	0	0	0	0	0	0	0	1372	990	0
1651053508389	-685.152	319.64	568.52	-29.54	23.73	61.67	-319.5	637.5	-351	0	0	0	0	0	0	0	0	0	0	0	0	0	0	0	0	0	0	1382	990	0
1651053508399	-694.912	327.936	585.6	-27.93	27.58	52.15	-327	636	-351	0	0	0	0	0	0	0	0	0	0	0	0	0	0	0	0	0	0	1372	1009	0
1651053508409	-704.184	352.824	605.608	-18.48	31.01	38.78	-331.5	631.5	-346.5	0	0	0	0	0	0	0	0	0	0	0	0	0	0	0	0	0	0	1356	1008	0
1651053508419	-713.944	352.336	613.904	-8.61	36.54	23.1	-337.5	630	-348	0	0	0	0	0	0	0	0	0	0	0	0	0	0	0	0	0	0	1354	985	0
1651053508430	-759.816	379.664	618.784	-3.15	45.01	2.45	-340.5	630	-349.5	0	0	0	0	0	0	0	0	0	0	0	0	0	0	0	0	0	0	1345	962	0
1651053508440	-759.328	348.432	589.504	3.08	59.08	-5.74	-345	625.5	-342	0	0	0	0	0	0	0	0	0	0	0	0	0	0	0	0	0	0	1345	961	0
1651053508450	-806.176	381.616	600.24	7.91	71.82	-10.85	-345	627	-331.5	0	0	0	0	0	0	0	0	0	0	0	0	0	0	0	0	0	0	1349	953	0
1651053508460	-776.408	387.96	640.744	2.17	76.79	-5.88	-342	628.5	-330	0	0	0	0	0	0	0	0	0	0	0	0	0	0	0	0	0	0	1358	963	0
1651053508470	-765.672	392.84	579.744	1.61	78.61	7.91	-343.5	627	-328.5	0	0	0	0	0	0	0	0	0	0	0	0	0	0	0	0	0	0	1371	974	0
1651053508480	-717.36	406.016	547.536	1.82	65.94	18.9	-349.5	628.5	-315	0	0	0	0	0	0	0	0	0	0	0	0	0	0	0	0	0	0	1372	982	0
1651053508490	-703.696	401.624	580.232	-2.87	46.13	20.23	-354	627	-306	0	0	0	0	0	0	0	0	0	0	0	0	0	0	0	0	0	0	1369	975	0
1651053508500	-681.736	425.048	580.232	-8.26	27.58	18.83	-354	627	-310.5	0	0	0	0	0	0	0	0	0	0	0	0	0	0	0	0	0	0	1367	974	0
1651053508510	-674.416	427.488	583.648	-9.59	19.67	20.51	-358.5	627	-310.5	0	0	0	0	0	0	0	0	0	0	0	0	0	0	0	0	0	0	1350	969	0
1651053508520	-688.568	410.896	620.736	-8.47	19.04	25.55	-358.5	627	-303	0	0	0	0	0	0	0	0	0	0	0	0	0	0	0	0	0	0	1340	959	0
1651053508530	-691.984	395.768	640.744	-12.46	23.8	27.58	-360	627	-297	0	0	0	0	0	0	0	0	0	0	0	0	0	0	0	0	0	0	1332	941	0
1651053508540	-725.656	415.288	623.176	-10.92	31.99	25.13	-375	621	-300	0	0	0	0	0	0	0	0	0	0	0	0	0	0	0	0	0	0	1311	944	0
1651053508550	-743.712	373.808	603.656	-8.26	43.47	31.64	-378	619.5	-303	0	0	0	0	0	0	0	0	0	0	0	0	0	0	0	0	0	0	1325	932	0
1651053508560	-611.464	358.68	114.192	8.33	51.03	20.86	-378	619.5	-303	0	0	0	0	0	0	0	0	0	0	0	0	0	0	0	0	0	0	1328	941	0
1651053508570	-701.256	444.08	538.752	5.74	52.08	39.9	-373.5	619.5	-292.5	0	0	0	0	0	0	0	0	0	0	0	0	0	0	0	0	0	0	1337	939	0
1651053508580	-709.552	466.528	527.528	-1.82	48.23	43.96	-376.5	616.5	-282	0	0	0	0	0	0	0	0	0	0	0	0	0	0	0	0	0	0	1342	953	0
1651053508590	-721.752	481.168	501.176	-2.66	43.47	51.52	-378	616.5	-279	0	0	0	0	0	0	0	0	0	0	0	0	0	0	0	0	0	0	1351	949	0
1651053508600	-760.304	485.072	481.656	-3.85	37.17	53.83	-388.5	613.5	-276	0	0	0	0	0	0	0	0	0	0	0	0	0	0	0	0	0	0	1346	957	0
1651053508610	-769.576	476.288	465.552	-6.23	26.11	52.85	-399	610.5	-277.5	0	0	0	0	0	0	0	0	0	0	0	0	0	0	0	0	0	0	1332	948	0
1651053508620	-772.504	488.488	480.192	-7.7	11.2	48.86	-403.5	603	-271.5	0	0	0	0	0	0	0	0	0	0	0	0	0	0	0	0	0	0	1323	947	0
1651053508630	-749.568	475.8	499.224	-10.92	-3.15	42.28	-408	595.5	-268.5	0	0	0	0	0	0	0	0	0	0	0	0	0	0	0	0	0	0	1331	937	0
1651053508640	-714.92	484.584	499.224	-15.96	-10.57	40.81	-411	601.5	-268.5	0	0	0	0	0	0	0	0	0	0	0	0	0	0	0	0	0	0	1326	937	0
1651053508650	-683.688	503.128	505.08	-19.6	-11.83	41.86	-417	603	-268.5	0	0	0	0	0	0	0	0	0	0	0	0	0	0	0	0	0	0	1318	929	0
1651053508660	-671.976	525.576	503.616	-22.26	-11.2	44.59	-417	598.5	-271.5	0	0	0	0	0	0	0	0	0	0	0	0	0	0	0	0	0	0	1338	929	0
1651053508670	-662.216	545.096	461.16	-23.87	-7.49	52.5	-423	594	-271.5	0	0	0	0	0	0	0	0	0	0	0	0	0	0	0	0	0	0	1334	935	0
1651053508680	-709.064	573.4	415.776	-20.58	0.21	67.97	-427.5	592.5	-271.5	0	0	0	0	0	0	0	0	0	0	0	0	0	0	0	0	0	0	1341	945	0
1651053508690	-765.672	573.888	382.592	-16.94	-0.35	73.36	-435	589.5	-270	0	0	0	0	0	0	0	0	0	0	0	0	0	0	0	0	0	0	1349	952	0
1651053508700	-833.992	575.84	363.56	-10.99	-5.39	72.03	-445.5	589.5	-271.5	0	0	0	0	0	0	0	0	0	0	0	0	0	0	0	0	0	0	1345	958	0
1651053508710	-865.712	572.424	369.904	-4.48	-14.28	65.52	-445.5	583.5	-276	0	0	0	0	0	0	0	0	0	0	0	0	0	0	0	0	0	0	1337	953	0
1651053508720	-869.616	572.912	386.496	0.77	-22.19	53.97	-453	574.5	-276	0	0	0	0	0	0	0	0	0	0	0	0	0	0	0	0	0	0	1328	946	0
1651053508730	-859.368	551.44	412.848	5.25	-26.04	43.33	-457.5	573	-277.5	0	0	0	0	0	0	0	0	0	0	0	0	0	0	0	0	0	0	1324	939	0
1651053508740	-887.184	499.224	485.072	6.3	-29.12	14.07	-463.5	573	-274.5	0	0	0	0	0	0	0	0	0	0	0	0	0	0	0	0	0	0	1306	937	0
1651053508750	-889.136	488.976	499.712	-15.19	-30.73	0.7	-468	573	-274.5	0	0	0	0	0	0	0	0	0	0	0	0	0	0	0	0	0	0	1298	924	0
1651053508760	-843.752	426.024	572.424	-17.36	-31.85	-3.43	-468	571.5	-279	0	0	0	0	0	0	0	0	0	0	0	0	0	0	0	0	0	0	1321	926	0
1651053508770	-760.792	405.04	539.24	1.12	-26.11	-17.36	-465	570	-283.5	0	0	0	0	0	0	0	0	0	0	0	0	0	0	0	0	0	0	1320	920	0
1651053508780	-864.736	440.664	597.312	-14.21	-23.73	-23.17	-465	565.5	-288	0	0	0	0	0	0	0	0	0	0	0	0	0	0	0	0	0	0	1331	934	0
1651053508790	-875.472	381.616	618.784	-11.97	-27.3	-23.24	-474	564	-289.5	0	0	0	0	0	0	0	0	0	0	0	0	0	0	0	0	0	0	1326	941	0
1651053508800	-920.856	403.088	614.392	-4.76	-25.69	-30.1	-468	564	-294	0	0	0	0	0	0	0	0	0	0	0	0	0	0	0	0	0	0	1320	933	0
1651053508810	-935.496	375.272	630.496	-9.73	-21.77	-27.51	-460.5	559.5	-297	0	0	0	0	0	0	0	0	0	0	0	0	0	0	0	0	0	0	1330	935	0
1651053508820	-926.224	343.064	667.584	-7.98	-17.43	-24.92	-460.5	564	-300	0	0	0	0	0	0	0	0	0	0	0	0	0	0	0	0	0	0	1319	931	0
1651053508830	-898.408	354.776	629.52	-9.31	-12.32	-27.72	-462	570	-300	0	0	0	0	0	0	0	0	0	0	0	0	0	0	0	0	0	0	1322	931	0
1651053508840	-844.728	390.4	613.416	-6.3	-6.44	-27.09	-462	570	-298.5	0	0	0	0	0	0	0	0	0	0	0	0	0	0	0	0	0	0	1315	929	0
1651053508850	-793	399.672	614.392	-4.27	-0.14	-22.82	-459	573	-298.5	0	0	0	0	0	0	0	0	0	0	0	0	0	0	0	0	0	0	1321	928	0
1651053508860	-733.464	406.504	617.32	-4.06	3.85	-16.87	-454.5	577.5	-304.5	0	0	0	0	0	0	0	0	0	0	0	0	0	0	0	0	0	0	1311	929	0
1651053508870	-675.88	419.192	625.616	0.77	6.37	-12.6	-454.5	577.5	-307.5	0	0	0	0	0	0	0	0	0	0	0	0	0	0	0	0	0	0	1325	931	0
1651053508880	-621.712	419.68	585.6	6.65	9.66	1.47	-457.5	579	-306	0	0	0	0	0	0	0	0	0	0	0	0	0	0	0	0	0	0	1319	939	0
1651053508890	-628.544	406.504	575.352	7.77	5.88	7.14	-454.5	579	-300	0	0	0	0	0	0	0	0	0	0	0	0	0	0	0	0	0	0	1316	937	0
1651053508900	-641.232	405.04	559.736	12.6	2.8	8.54	-456	577.5	-300	0	0	0	0	0	0	0	0	0	0	0	0	0	0	0	0	0	0	1316	938	0
1651053508910	-631.96	425.048	519.72	18.2	2.24	11.06	-459	579	-297	0	0	0	0	0	0	0	0	0	0	0	0	0	0	0	0	0	0	1322	944	0
1651053508920	-663.192	426.512	519.72	19.46	1.05	15.26	-457.5	579	-294	0	0	0	0	0	0	0	0	0	0	0	0	0	0	0	0	0	0	1312	937	0
1651053508930	-681.736	418.216	518.256	24.71	1.82	20.02	-453	579	-295.5	0	0	0	0	0	0	0	0	0	0	0	0	0	0	0	0	0	0	1318	932	0
1651053508940	-720.776	419.68	524.6	28.35	3.78	22.33	-454.5	573	-297	0	0	0	0	0	0	0	0	0	0	0	0	0	0	0	0	0	0	1321	931	0
1651053508950	-752.008	406.992	529.968	29.96	4.55	23.31	-465	574.5	-292.5	0	0	0	0	0	0	0	0	0	0	0	0	0	0	0	0	0	0	1321	928	0
1651053508960	-789.584	410.408	541.192	32.69	2.8	17.99	-460.5	573	-285	0	0	0	0	0	0	0	0	0	0	0	0	0	0	0	0	0	0	1320	936	0
1651053508970	-791.536	381.616	518.744	31.71	2.1	16.17	-462	570	-285	0	0	0	0	0	0	0	0	0	0	0	0	0	0	0	0	0	0	1320	933	0
1651053508980	-797.392	380.64	551.44	19.53	-1.19	2.31	-465	570	-277.5	0	0	0	0	0	0	0	0	0	0	0	0	0	0	0	0	0	0	1325	930	0
1651053508990	-751.032	382.592	569.496	2.66	-8.47	-6.37	-460.5	573	-279	0	0	0	0	0	0	0	0	0	0	0	0	0	0	0	0	0	0	1327	937	0
1651053509000	-724.68	399.672	562.176	4.83	-9.8	-12.67	-462	571.5	-283.5	0	0	0	0	0	0	0	0	0	0	0	0	0	0	0	0	0	0	1331	937	0
1651053509010	-706.136	405.04	537.776	6.16	-7.07	-8.82	-465	568.5	-285	0	0	0	0	0	0	0	0	0	0	0	0	0	0	0	0	0	0	1325	935	0
1651053509020	-717.848	391.864	550.464	4.2	-9.73	-8.4	-462	570	-288	0	0	0	0	0	0	0	0	0	0	0	0	0	0	0	0	0	0	1307	936	0
1651053509030	-731.024	383.568	554.856	2.8	-11.83	-6.72	-459	571.5	-288	0	0	0	0	0	0	0	0	0	0	0	0	0	0	0	0	0	0	1319	926	0
1651053509040	-774.456	374.296	575.84	4.2	-10.01	-7.07	-457.5	574.5	-288	0	0	0	0	0	0	0	0	0	0	0	0	0	0	0	0	0	0	1307	922	0
1651053509050	-782.264	374.296	589.016	4.76	-6.37	-8.19	-457.5	573	-283.5	0	0	0	0	0	0	0	0	0	0	0	0	0	0	0	0	0	0	1313	920	0
1651053509060	-771.528	379.176	579.256	2.8	-4.34	-12.11	-456	573	-279	0	0	0	0	0	0	0	0	0	0	0	0	0	0	0	0	0	0	1313	933	0
1651053509070	-749.08	384.056	581.696	0.42	-1.75	-14.84	-456	579	-282	0	0	0	0	0	0	0	0	0	0	0	0	0	0	0	0	0	0	1320	932	0
1651053509080	-710.04	398.208	558.76	0.42	2.31	-14.63	-459	576	-286.5	0	0	0	0	0	0	0	0	0	0	0	0	0	0	0	0	0	0	1324	936	0
1651053509090	-671	430.416	548.024	0.35	5.88	-11.06	-459	576	-282	0	0	0	0	0	0	0	0	0	0	0	0	0	0	0	0	0	0	1328	946	0
1651053509100	-653.432	436.76	529.48	0.56	5.46	-5.46	-454.5	580.5	-279	0	0	0	0	0	0	0	0	0	0	0	0	0	0	0	0	0	0	1323	946	0
1651053509110	-661.24	431.88	526.552	1.12	2.31	-1.61	-456	580.5	-277.5	0	0	0	0	0	0	0	0	0	0	0	0	0	0	0	0	0	0	1318	941	0
1651053509120	-693.936	437.736	515.328	2.17	-2.17	1.96	-459	582	-280.5	0	0	0	0	0	0	0	0	0	0	0	0	0	0	0	0	0	0	1308	930	0
1651053509130	-729.072	434.808	521.184	2.1	-5.32	2.73	-456	582	-285	0	0	0	0	0	0	0	0	0	0	0	0	0	0	0	0	0	0	1307	929	0
1651053509140	-763.72	430.416	524.112	2.94	-6.65	1.4	-454.5	580.5	-282	0	0	0	0	0	0	0	0	0	0	0	0	0	0	0	0	0	0	1311	925	0
1651053509150	-782.264	429.44	522.16	4.2	-6.16	-1.47	-457.5	580.5	-282	0	0	0	0	0	0	0	0	0	0	0	0	0	0	0	0	0	0	1304	927	0
1651053509160	-767.136	420.656	529.48	3.36	-4.13	-3.43	-456	576	-285	0	0	0	0	0	0	0	0	0	0	0	0	0	0	0	0	0	0	1318	930	0
1651053509170	-753.472	427.976	538.752	2.17	-1.75	-6.44	-448.5	577.5	-286.5	0	0	0	0	0	0	0	0	0	0	0	0	0	0	0	0	0	0	1335	946	0
1651053509180	-735.416	422.608	543.144	0.91	1.89	-7	-453	579	-279	0	0	0	0	0	0	0	0	0	0	0	0	0	0	0	0	0	0	1337	944	0
1651053509190	-714.432	418.216	538.752	-2.87	3.5	-6.79	-460.5	583.5	-279	0	0	0	0	0	0	0	0	0	0	0	0	0	0	0	0	0	0	1332	944	0
1651053509200	-711.016	424.56	553.88	-3.5	3.01	-8.96	-454.5	583.5	-282	0	0	0	0	0	0	0	0	0	0	0	0	0	0	0	0	0	0	1328	953	0
1651053509210	-703.208	406.992	537.776	-4.34	3.64	-8.26	-450	574.5	-282	0	0	0	0	0	0	0	0	0	0	0	0	0	0	0	0	0	0	1320	951	0
1651053509220	-691.984	403.088	520.208	-6.09	2.94	-8.68	-451.5	576	-283.5	0	0	0	0	0	0	0	0	0	0	0	0	0	0	0	0	0	0	1313	937	0
1651053509230	-673.44	412.848	509.472	-6.3	0.42	-8.19	-456	585	-283.5	0	0	0	0	0	0	0	0	0	0	0	0	0	0	0	0	0	0	1303	924	0
1651053509240	-669.048	400.16	521.184	-3.85	-2.73	-7.56	-453	586.5	-282	0	0	0	0	0	0	0	0	0	0	0	0	0	0	0	0	0	0	1310	918	0
1651053509250	-670.024	389.424	530.944	-2.1	-4.55	-6.72	-448.5	582	-280.5	0	0	0	0	0	0	0	0	0	0	0	0	0	0	0	0	0	0	1312	924	0
1651053509260	-690.52	379.176	555.344	-4.41	-7.21	-5.25	-453	579	-283.5	0	0	0	0	0	0	0	0	0	0	0	0	0	0	0	0	0	0	1314	928	0
1651053509271	-707.112	368.44	580.72	-5.32	-8.12	-2.94	-453	576	-288	0	0	0	0	0	0	0	0	0	0	0	0	0	0	0	0	0	0	1319	930	0
1651053509281	-724.192	366.976	577.304	-6.02	-6.16	-2.24	-450	580.5	-288	0	0	0	0	0	0	0	0	0	0	0	0	0	0	0	0	0	0	1317	928	0
1651053509291	-754.936	384.056	591.944	-10.64	-3.5	-5.04	-456	582	-285	0	0	0	0	0	0	0	0	0	0	0	0	0	0	0	0	0	0	1317	940	0
1651053509301	-745.176	370.392	568.52	-7.35	-1.54	-3.15	-460.5	577.5	-289.5	0	0	0	0	0	0	0	0	0	0	0	0	0	0	0	0	0	0	1309	944	0
1651053509311	-726.632	366.976	565.104	-5.6	-0.49	-3.92	-456	580.5	-294	0	0	0	0	0	0	0	0	0	0	0	0	0	0	0	0	0	0	1324	942	0
1651053509321	-726.144	373.32	569.984	-4.69	-1.33	-3.43	-450	585	-292.5	0	0	0	0	0	0	0	0	0	0	0	0	0	0	0	0	0	0	1329	945	0
1651053509331	-736.392	364.536	566.568	-4.13	-3.29	-2.73	-445.5	577.5	-291	0	0	0	0	0	0	0	0	0	0	0	0	0	0	0	0	0	0	1314	932	0
1651053509341	-752.008	368.928	572.424	-3.22	-4.69	-2.73	-445.5	576	-289.5	0	0	0	0	0	0	0	0	0	0	0	0	0	0	0	0	0	0	1315	932	0
1651053509351	-764.208	354.776	565.592	-4.34	-5.95	-2.59	-448.5	580.5	-288	0	0	0	0	0	0	0	0	0	0	0	0	0	0	0	0	0	0	1320	929	0
1651053509361	-782.264	356.728	551.928	-5.25	-5.74	-2.1	-450	582	-288	0	0	0	0	0	0	0	0	0	0	0	0	0	0	0	0	0	0	1314	941	0
1651053509371	-794.464	365.024	562.664	-6.72	-5.32	-4.97	-450	579	-291	0	0	0	0	0	0	0	0	0	0	0	0	0	0	0	0	0	0	1314	940	0
1651053509381	-756.888	367.952	549.488	-5.88	-3.22	-4.41	-450	585	-294	0	0	0	0	0	0	0	0	0	0	0	0	0	0	0	0	0	0	1322	947	0
1651053509391	-745.176	386.008	533.872	-4.69	-3.15	-7	-450	594	-298.5	0	0	0	0	0	0	0	0	0	0	0	0	0	0	0	0	0	0	1311	935	0
1651053509401	-741.272	388.448	538.264	-5.18	-3.43	-6.23	-451.5	588	-303	0	0	0	0	0	0	0	0	0	0	0	0	0	0	0	0	0	0	1319	936	0
1651053509411	-743.712	389.424	543.632	-3.64	-3.15	-6.09	-451.5	585	-301.5	0	0	0	0	0	0	0	0	0	0	0	0	0	0	0	0	0	0	1316	930	0
1651053509421	-734.44	400.16	535.824	-0.21	-1.4	-3.57	-451.5	588	-306	0	0	0	0	0	0	0	0	0	0	0	0	0	0	0	0	0	0	1309	940	0
1651053509431	-748.104	386.008	536.8	0	-0.63	-1.26	-451.5	586.5	-306	0	0	0	0	0	0	0	0	0	0	0	0	0	0	0	0	0	0	1321	938	0
1651053509441	-742.736	371.368	533.384	-0.07	-0.28	-1.33	-447	585	-301.5	0	0	0	0	0	0	0	0	0	0	0	0	0	0	0	0	0	0	1320	935	0
1651053509451	-720.288	375.272	509.472	-0.98	0.49	-2.24	-444	582	-298.5	0	0	0	0	0	0	0	0	0	0	0	0	0	0	0	0	0	0	1314	921	0
1651053509461	-717.36	385.52	496.784	-3.43	0.14	-2.1	-445.5	579	-295.5	0	0	0	0	0	0	0	0	0	0	0	0	0	0	0	0	0	0	1320	933	0
1651053509471	-705.648	388.448	488.488	-4.06	-1.12	-1.4	-442.5	583.5	-300	0	0	0	0	0	0	0	0	0	0	0	0	0	0	0	0	0	0	1318	929	0
1651053509481	-710.04	386.496	487.512	-1.12	-2.1	-0.28	-442.5	592.5	-303	0	0	0	0	0	0	0	0	0	0	0	0	0	0	0	0	0	0	1309	928	0
1651053509491	-729.072	370.392	505.568	0.7	-4.97	-0.14	-447	585	-298.5	0	0	0	0	0	0	0	0	0	0	0	0	0	0	0	0	0	0	1322	927	0
1651053509501	-777.872	351.848	549	-4.69	-13.09	-6.02	-445.5	580.5	-301.5	0	0	0	0	0	0	0	0	0	0	0	0	0	0	0	0	0	0	1311	940	0
1651053509511	-799.832	339.648	571.936	-4.34	-15.47	-9.52	-444	586.5	-304.5	0	0	0	0	0	0	0	0	0	0	0	0	0	0	0	0	0	0	1320	931	0
1651053509521	-813.496	350.872	579.256	-1.33	-13.72	-11.55	-439.5	586.5	-301.5	0	0	0	0	0	0	0	0	0	0	0	0	0	0	0	0	0	0	1319	939	0
1651053509531	-786.168	352.824	573.888	1.68	-8.89	-9.94	-439.5	583.5	-301.5	0	0	0	0	0	0	0	0	0	0	0	0	0	0	0	0	0	0	1318	935	0
1651053509541	-755.912	358.192	563.64	2.8	-2.52	-5.32	-441	580.5	-304.5	0	0	0	0	0	0	0	0	0	0	0	0	0	0	0	0	0	0	1318	941	0
1651053509551	-738.832	358.68	568.52	3.08	2.8	-1.68	-436.5	580.5	-310.5	0	0	0	0	0	0	0	0	0	0	0	0	0	0	0	0	0	0	1321	944	0
1651053509561	-723.216	358.192	549.976	2.52	6.02	1.75	-439.5	583.5	-306	0	0	0	0	0	0	0	0	0	0	0	0	0	0	0	0	0	0	1312	938	0
1651053509571	-737.368	357.216	549	2.73	6.02	4.55	-441	589.5	-298.5	0	0	0	0	0	0	0	0	0	0	0	0	0	0	0	0	0	0	1322	950	0
1651053509581	-758.84	346.968	563.152	2.31	3.43	4.62	-444	591	-304.5	0	0	0	0	0	0	0	0	0	0	0	0	0	0	0	0	0	0	1322	938	0
1651053509591	-775.432	346.968	559.248	3.43	2.52	4.34	-441	585	-309	0	0	0	0	0	0	0	0	0	0	0	0	0	0	0	0	0	0	1335	952	0
1651053509601	-785.68	345.016	551.44	3.92	2.03	2.38	-435	583.5	-306	0	0	0	0	0	0	0	0	0	0	0	0	0	0	0	0	0	0	1325	947	0
1651053509611	-775.432	366.976	553.88	3.29	0.28	-1.05	-436.5	583.5	-301.5	0	0	0	0	0	0	0	0	0	0	0	0	0	0	0	0	0	0	1333	954	0
1651053509621	-750.056	349.896	554.856	4.62	0.42	-1.82	-439.5	582	-301.5	0	0	0	0	0	0	0	0	0	0	0	0	0	0	0	0	0	0	1326	947	0
1651053509631	-718.336	368.928	569.008	6.02	0.49	-1.96	-439.5	583.5	-303	0	0	0	0	0	0	0	0	0	0	0	0	0	0	0	0	0	0	1331	948	0
1651053509641	-704.672	361.608	570.96	5.74	0.91	-0.28	-441	582	-304.5	0	0	0	0	0	0	0	0	0	0	0	0	0	0	0	0	0	0	1325	950	0
1651053509651	-715.408	355.264	574.376	3.85	1.82	1.82	-439.5	577.5	-301.5	0	0	0	0	0	0	0	0	0	0	0	0	0	0	0	0	0	0	1325	957	0
1651053509661	-730.536	366	566.568	2.66	2.31	3.15	-439.5	580.5	-300	0	0	0	0	0	0	0	0	0	0	0	0	0	0	0	0	0	0	1330	955	0
1651053509671	-745.176	366.976	567.056	2.59	1.82	3.43	-444	585	-300	0	0	0	0	0	0	0	0	0	0	0	0	0	0	0	0	0	0	1336	945	0
1651053509681	-750.056	368.928	553.88	2.87	-0.7	1.61	-444	588	-298.5	0	0	0	0	0	0	0	0	0	0	0	0	0	0	0	0	0	0	1341	954	0
1651053509691	-746.152	369.904	561.2	2.94	-3.64	-0.07	-439.5	588	-304.5	0	0	0	0	0	0	0	0	0	0	0	0	0	0	0	0	0	0	1333	950	0
1651053509701	-735.904	368.928	559.248	2.31	-6.3	-2.59	-441	585	-301.5	0	0	0	0	0	0	0	0	0	0	0	0	0	0	0	0	0	0	1335	954	0
1651053509711	-726.144	362.096	573.888	1.26	-6.3	-2.45	-441	585	-295.5	0	0	0	0	0	0	0	0	0	0	0	0	0	0	0	0	0	0	1341	963	0
1651053509721	-721.752	354.288	572.424	0.07	-6.16	-3.78	-441	585	-298.5	0	0	0	0	0	0	0	0	0	0	0	0	0	0	0	0	0	0	1334	957	0
1651053509731	-719.312	361.12	569.984	-1.33	-4.9	-3.22	-441	583.5	-301.5	0	0	0	0	0	0	0	0	0	0	0	0	0	0	0	0	0	0	1344	953	0
1651053509741	-712.968	368.928	566.08	-1.4	-5.32	-2.31	-441	586.5	-304.5	0	0	0	0	0	0	0	0	0	0	0	0	0	0	0	0	0	0	1346	960	0
1651053509751	-715.408	365.024	568.52	-0.28	-5.95	-1.47	-441	589.5	-306	0	0	0	0	0	0	0	0	0	0	0	0	0	0	0	0	0	0	1344	968	0
1651053509761	-733.952	361.12	568.52	0.49	-5.6	0.07	-439.5	588	-303	0	0	0	0	0	0	0	0	0	0	0	0	0	0	0	0	0	0	1346	969	0
1651053509771	-757.376	360.632	577.304	1.47	-4.97	1.54	-441	588	-304.5	0	0	0	0	0	0	0	0	0	0	0	0	0	0	0	0	0	0	1357	978	0
1651053509781	-766.16	357.704	570.472	1.75	-4.34	1.19	-438	588	-306	0	0	0	0	0	0	0	0	0	0	0	0	0	0	0	0	0	0	1353	983	0
1651053509791	-772.504	353.8	569.984	0.49	-3.99	-0.35	-432	588	-300	0	0	0	0	0	0	0	0	0	0	0	0	0	0	0	0	0	0	1361	990	0
1651053509801	-741.76	367.952	567.056	-0.84	-3.36	-2.03	-436.5	589.5	-297	0	0	0	0	0	0	0	0	0	0	0	0	0	0	0	0	0	0	1372	991	0
1651053509811	-727.608	367.464	559.248	-0.35	-2.31	-1.61	-441	586.5	-297	0	0	0	0	0	0	0	0	0	0	0	0	0	0	0	0	0	0	1374	1010	0
1651053509821	-719.8	360.144	566.08	0.35	-1.61	-0.49	-439.5	583.5	-298.5	0	0	0	0	0	0	0	0	0	0	0	0	0	0	0	0	0	0	1382	1025	0
1651053509831	-718.824	365.024	568.52	0.49	-1.19	0.49	-439.5	586.5	-303	0	0	0	0	0	0	0	0	0	0	0	0	0	0	0	0	0	0	1387	1032	0
1651053509841	-740.296	363.56	573.888	0.07	-1.82	1.4	-438	588	-306	0	0	0	0	0	0	0	0	0	0	0	0	0	0	0	0	0	0	1397	1037	0
1651053509851	-756.888	366.488	569.496	0.28	-2.38	1.54	-436.5	586.5	-303	0	0	0	0	0	0	0	0	0	0	0	0	0	0	0	0	0	0	1415	1048	0
1651053509861	-771.528	363.56	572.424	0.49	-2.38	1.12	-436.5	585	-301.5	0	0	0	0	0	0	0	0	0	0	0	0	0	0	0	0	0	0	1430	1069	0
1651053509871	-772.016	360.632	552.904	1.26	-1.82	-0.7	-441	588	-304.5	0	0	0	0	0	0	0	0	0	0	0	0	0	0	0	0	0	0	1447	1099	0
1651053509881	-753.472	368.928	536.8	2.1	-0.7	-1.47	-441	589.5	-306	0	0	0	0	0	0	0	0	0	0	0	0	0	0	0	0	0	0	1468	1131	0
1651053509891	-730.536	379.176	538.264	2.17	-0.98	-3.01	-433.5	583.5	-307.5	0	0	0	0	0	0	0	0	0	0	0	0	0	0	0	0	0	0	1492	1155	0
1651053509901	-704.672	370.88	550.464	2.87	0.07	-1.19	-432	588	-306	0	0	0	0	0	0	0	0	0	0	0	0	0	0	0	0	0	0	1528	1185	0
1651053509911	-710.528	371.368	548.024	2.73	-0.63	-0.07	-436.5	586.5	-304.5	0	0	0	0	0	0	0	0	0	0	0	0	0	0	0	0	0	0	1556	1219	0
1651053509921	-717.848	363.56	568.52	2.38	-3.85	0.14	-435	580.5	-304.5	0	0	0	0	0	0	0	0	0	0	0	0	0	0	0	0	0	0	1595	1273	0
1651053509931	-737.368	347.456	576.328	2.52	-5.53	-0.35	-433.5	582	-307.5	0	0	0	0	0	0	0	0	0	0	0	0	0	0	0	0	0	0	1635	1325	0
1651053509941	-748.104	350.384	582.672	1.89	-6.09	-0.84	-433.5	588	-306	0	0	0	0	0	0	0	0	0	0	0	0	0	0	0	0	0	0	1689	1381	0
1651053509951	-751.52	347.944	576.816	1.4	-5.46	-2.03	-435	591	-303	0	0	0	0	0	0	0	0	0	0	0	0	0	0	0	0	0	0	1747	1458	0
1651053509961	-725.168	355.752	571.936	1.54	-2.59	-2.24	-439.5	589.5	-304.5	0	0	0	0	0	0	0	0	0	0	0	0	0	0	0	0	0	0	1827	1545	0
1651053509971	-709.552	367.952	568.52	1.33	-0.49	-1.89	-441	583.5	-306	0	0	0	0	0	0	0	0	0	0	0	0	0	0	0	0	0	0	1909	1636	0
1651053509981	-698.816	370.392	560.712	0.98	0.14	-0.56	-436.5	585	-307.5	0	0	0	0	0	0	0	0	0	0	0	0	0	0	0	0	0	0	2013	1757	0
1651053509991	-702.232	374.296	569.496	0.77	-0.84	0.28	-436.5	592.5	-307.5	0	0	0	0	0	0	0	0	0	0	0	0	0	0	0	0	0	0	2132	1889	0
1651053510001	-709.552	367.952	571.936	1.68	-0.91	1.47	-439.5	594	-303	0	0	0	0	0	0	0	0	0	0	0	0	0	0	0	0	0	0	2266	2017	0
1651053510011	-724.192	368.928	564.616	1.54	-1.96	1.96	-436.5	591	-300	0	0	0	0	0	0	0	0	0	0	0	0	0	0	0	0	0	0	2442	2196	0
1651053510021	-726.144	374.296	570.472	0.98	-3.08	1.33	-436.5	585	-304.5	0	0	0	0	0	0	0	0	0	0	0	0	0	0	0	0	0	0	2561	2335	0
1651053510031	-718.824	366.488	562.664	1.61	-2.31	1.19	-438	585	-306	0	0	0	0	0	0	0	0	0	0	0	0	0	0	0	0	0	0	2729	2501	0
1651053510041	-715.896	375.76	564.616	1.68	-3.01	0.98	-439.5	586.5	-306	0	0	0	0	0	0	0	0	0	0	0	0	0	0	0	0	0	0	2899	2670	0
1651053510051	-713.944	372.344	570.472	1.96	-4.9	0.77	-433.5	586.5	-307.5	0	0	0	0	0	0	0	0	0	0	0	0	0	0	0	0	0	0	3063	2842	0
1651053510061	-713.456	360.632	589.992	1.26	-5.67	1.33	-429	588	-303	0	0	0	0	0	0	0	0	0	0	0	0	0	0	0	0	0	0	3222	2994	0
1651053510071	-725.656	356.728	598.776	1.19	-5.25	1.82	-432	588	-304.5	0	0	0	0	0	0	0	0	0	0	0	0	0	0	0	0	0	0	3381	3157	0
1651053510081	-740.784	359.656	600.728	1.05	-4.2	1.54	-435	588	-304.5	0	0	0	0	0	0	0	0	0	0	0	0	0	0	0	0	0	0	3543	3315	0
1651053510091	-740.296	363.072	599.264	0.7	-3.08	1.05	-439.5	586.5	-303	0	0	0	0	0	0	0	0	0	0	0	0	0	0	0	0	0	0	3707	3506	0
1651053510101	-731.024	357.704	589.016	0.21	-1.61	0.7	-441	592.5	-301.5	0	0	0	0	0	0	0	0	0	0	0	0	0	0	0	0	0	0	3885	3705	0
1651053510112	-714.92	359.656	562.176	-0.14	-1.19	0.21	-438	592.5	-304.5	0	0	0	0	0	0	0	0	0	0	0	0	0	0	0	0	0	0	4053	3905	0
1651053510122	-697.84	374.784	557.784	0.21	-2.1	0.56	-435	585	-306	0	0	0	0	0	0	0	0	0	0	0	0	0	0	0	0	0	0	4255	4122	0
1651053510132	-705.648	367.952	551.44	0.63	-3.29	0.91	-433.5	582	-304.5	0	0	0	0	0	0	0	0	0	0	0	0	0	0	0	0	0	0	4470	4343	0
1651053510142	-716.872	357.704	571.936	0.7	-4.9	1.33	-435	580.5	-301.5	0	0	0	0	0	0	0	0	0	0	0	0	0	0	0	0	0	0	4720	4599	0
1651053510152	-732	354.288	583.648	0.35	-6.58	1.33	-438	588	-303	0	0	0	0	0	0	0	0	0	0	0	0	0	0	0	0	0	0	5007	4889	0
1651053510162	-743.224	350.384	589.504	-0.07	-7.49	0.98	-439.5	586.5	-307.5	0	0	0	0	0	0	0	0	0	0	0	0	0	0	0	0	0	0	5340	5232	0
1651053510172	-758.352	351.848	588.528	0.28	-6.79	0.35	-441	583.5	-307.5	0	0	0	0	0	0	0	0	0	0	0	0	0	0	0	0	0	0	5726	5619	0
1651053510182	-757.864	350.872	597.8	-0.84	-6.3	-1.4	-439.5	588	-304.5	0	0	0	0	0	0	0	0	0	0	0	0	0	0	0	0	0	0	6149	6049	0
1651053510192	-752.496	346.48	595.36	-1.47	-5.18	-2.38	-436.5	583.5	-304.5	0	0	0	0	0	0	0	0	0	0	0	0	0	0	0	0	0	0	6613	6521	0
1651053510202	-732.976	355.752	582.184	-1.68	-4.55	-2.59	-432	583.5	-306	0	0	0	0	0	0	0	0	0	0	0	0	0	0	0	0	0	0	7194	7081	0
1651053510212	-727.608	352.336	577.304	-1.33	-4.06	-1.33	-433.5	586.5	-307.5	0	0	0	0	0	0	0	0	0	0	0	0	0	0	0	0	0	0	7918	7758	0
1651053510222	-734.928	364.048	569.984	-0.77	-3.29	0	-435	583.5	-315	0	0	0	0	0	0	0	0	0	0	0	0	0	0	0	0	0	0	9066	8822	0
1651053510232	-739.808	359.168	567.544	0	-2.66	0.42	-439.5	582	-315	0	0	0	0	0	0	0	0	0	0	0	0	0	0	0	0	0	0	9817	9571	0
1651053510242	-751.032	356.24	572.424	0.28	-1.82	0.7	-433.5	580.5	-307.5	0	0	0	0	0	0	0	0	0	0	0	0	0	0	0	0	0	0	10806	10539	0
1651053510252	-743.712	355.752	564.128	0.35	-1.26	0.35	-433.5	580.5	-307.5	0	0	0	0	0	0	0	0	0	0	0	0	0	0	0	0	0	0	11716	11448	0
1651053510262	-727.12	358.192	564.128	0.56	-1.96	-0.14	-430.5	585	-309	0	0	0	0	0	0	0	0	0	0	0	0	0	0	0	0	0	0	12501	12246	0
1651053510272	-711.992	362.584	560.712	1.19	-1.89	-0.21	-429	588	-312	0	0	0	0	0	0	0	0	0	0	0	0	0	0	0	0	0	0	12954	12715	0
1651053510282	-701.256	365.024	561.688	1.75	-2.38	0.63	-429	586.5	-303	0	0	0	0	0	0	0	0	0	0	0	0	0	0	0	0	0	0	12849	12671	0
1651053510292	-708.088	362.584	573.888	1.96	-3.57	1.54	-433.5	589.5	-301.5	0	0	0	0	0	0	0	0	0	0	0	0	0	0	0	0	0	0	12465	12428	0
1651053510302	-717.848	364.536	584.136	2.17	-3.99	2.38	-436.5	591	-306	0	0	0	0	0	0	0	0	0	0	0	0	0	0	0	0	0	0	11893	12157	0
1651053510312	-745.664	363.072	585.112	1.89	-3.85	3.08	-433.5	583.5	-306	0	0	0	0	0	0	0	0	0	0	0	0	0	0	0	0	0	0	11240	11912	0
1651053510322	-761.768	366	585.112	1.54	-2.1	2.73	-432	579	-306	0	0	0	0	0	0	0	0	0	0	0	0	0	0	0	0	0	0	10556	11600	0
1651053510332	-753.472	367.464	577.792	1.68	-0.91	1.75	-436.5	583.5	-310.5	0	0	0	0	0	0	0	0	0	0	0	0	0	0	0	0	0	0	10021	11371	0
1651053510342	-746.152	365.024	570.472	2.24	-0.35	-0.21	-436.5	583.5	-313.5	0	0	0	0	0	0	0	0	0	0	0	0	0	0	0	0	0	0	9712	11353	0
1651053510352	-709.064	362.096	568.52	0.98	-0.21	-0.28	-435	588	-315	0	0	0	0	0	0	0	0	0	0	0	0	0	0	0	0	0	0	9585	11517	0
1651053510362	-701.256	368.928	561.688	0.21	0.07	0.21	-433.5	592.5	-313.5	0	0	0	0	0	0	0	0	0	0	0	0	0	0	0	0	0	0	9476	11631	0
1651053510372	-698.816	365.512	564.128	0.14	0.42	0.63	-433.5	589.5	-310.5	0	0	0	0	0	0	0	0	0	0	0	0	0	0	0	0	0	0	9285	11603	0
1651053510382	-703.208	374.784	571.448	0.35	0	0.91	-432	588	-304.5	0	0	0	0	0	0	0	0	0	0	0	0	0	0	0	0	0	0	9077	11513	0
1651053510392	-706.624	365.512	562.664	0.35	-1.33	1.05	-432	589.5	-301.5	0	0	0	0	0	0	0	0	0	0	0	0	0	0	0	0	0	0	8886	11493	0
1651053510402	-710.528	363.56	564.616	0	-2.73	0.84	-433.5	588	-307.5	0	0	0	0	0	0	0	0	0	0	0	0	0	0	0	0	0	0	8814	11671	0
1651053510412	-702.232	371.368	564.616	0.77	-2.73	0.84	-438	585	-310.5	0	0	0	0	0	0	0	0	0	0	0	0	0	0	0	0	0	0	8994	12194	0
1651053510422	-693.936	379.664	555.344	1.33	-1.75	1.05	-438	583.5	-310.5	0	0	0	0	0	0	0	0	0	0	0	0	0	0	0	0	0	0	9473	13070	0
1651053510432	-695.4	374.296	557.784	1.05	-1.75	2.17	-433.5	586.5	-309	0	0	0	0	0	0	0	0	0	0	0	0	0	0	0	0	0	0	10460	14653	0
1651053510442	-712.968	376.248	566.08	1.82	-2.38	2.38	-432	586.5	-306	0	0	0	0	0	0	0	0	0	0	0	0	0	0	0	0	0	0	11214	15826	0
1651053510452	-731.024	364.048	574.864	1.75	-3.78	1.54	-433.5	586.5	-309	0	0	0	0	0	0	0	0	0	0	0	0	0	0	0	0	0	0	12388	17526	0
1651053510462	-736.392	359.656	578.28	1.12	-5.46	0.21	-438	592.5	-313.5	0	0	0	0	0	0	0	0	0	0	0	0	0	0	0	0	0	0	13586	19165	0
1651053510472	-746.152	359.168	580.72	0.56	-5.74	-0.63	-439.5	592.5	-315	0	0	0	0	0	0	0	0	0	0	0	0	0	0	0	0	0	0	14648	20589	0
1651053510482	-754.448	352.824	591.456	0.77	-3.92	-1.4	-435	583.5	-315	0	0	0	0	0	0	0	0	0	0	0	0	0	0	0	0	0	0	15480	21660	0
1651053510492	-735.416	353.312	586.088	0.49	-1.68	-1.96	-430.5	580.5	-313.5	0	0	0	0	0	0	0	0	0	0	0	0	0	0	0	0	0	0	16002	22361	0
1651053510502	-723.704	366	579.256	-0.14	-0.7	-2.17	-435	585	-313.5	0	0	0	0	0	0	0	0	0	0	0	0	0	0	0	0	0	0	16444	22968	0
1651053510512	-695.4	364.536	586.088	-0.35	-0.7	-2.03	-441	585	-309	0	0	0	0	0	0	0	0	0	0	0	0	0	0	0	0	0	0	17080	23831	0
1651053510522	-697.352	371.856	580.232	-0.28	-1.54	-0.42	-441	580.5	-307.5	0	0	0	0	0	0	0	0	0	0	0	0	0	0	0	0	0	0	18257	25344	0
1651053510532	-702.232	370.392	588.04	0.28	-2.1	0.56	-436.5	579	-309	0	0	0	0	0	0	0	0	0	0	0	0	0	0	0	0	0	0	20050	27558	0
1651053510542	-724.68	373.32	589.016	0.42	-2.52	1.12	-432	583.5	-310.5	0	0	0	0	0	0	0	0	0	0	0	0	0	0	0	0	0	0	21965	29704	0
1651053510552	-724.68	359.656	593.408	0.56	-2.31	0.91	-429	585	-313.5	0	0	0	0	0	0	0	0	0	0	0	0	0	0	0	0	0	0	22961	30725	0
1651053510562	-733.464	365.512	587.552	0	-1.61	0.35	-433.5	588	-318	0	0	0	0	0	0	0	0	0	0	0	0	0	0	0	0	0	0	23690	31514	0
1651053510572	-726.144	363.072	578.28	-0.49	-0.98	0.14	-432	589.5	-312	0	0	0	0	0	0	0	0	0	0	0	0	0	0	0	0	0	0	24592	32445	0
1651053510582	-716.384	368.44	569.496	-0.56	-1.47	-0.35	-426	586.5	-307.5	0	0	0	0	0	0	0	0	0	0	0	0	0	0	0	0	0	0	25237	33058	0
1651053510592	-716.872	359.168	570.96	-0.77	-2.24	-0.49	-430.5	586.5	-312	0	0	0	0	0	0	0	0	0	0	0	0	0	0	0	0	0	0	25499	33314	0
1651053510602	-720.288	355.752	582.672	-0.14	-2.87	-0.56	-430.5	586.5	-315	0	0	0	0	0	0	0	0	0	0	0	0	0	0	0	0	0	0	25751	33637	0
1651053510612	-737.368	351.848	594.384	0.21	-2.66	-0.56	-435	585	-312	0	0	0	0	0	0	0	0	0	0	0	0	0	0	0	0	0	0	26278	34330	0
1651053510622	-735.904	338.184	613.416	0.56	-2.17	-0.56	-435	591	-310.5	0	0	0	0	0	0	0	0	0	0	0	0	0	0	0	0	0	0	27157	35417	0
1651053510632	-727.608	343.552	620.736	0.21	-1.75	-0.14	-433.5	589.5	-315	0	0	0	0	0	0	0	0	0	0	0	0	0	0	0	0	0	0	28261	36715	0
1651053510642	-719.312	351.36	615.856	0.14	-1.75	-0.14	-433.5	583.5	-318	0	0	0	0	0	0	0	0	0	0	0	0	0	0	0	0	0	0	29862	38523	0
1651053510652	-709.064	359.656	601.216	0	-2.24	0.35	-429	586.5	-319.5	0	0	0	0	0	0	0	0	0	0	0	0	0	0	0	0	0	0	30570	39284	0
1651053510662	-709.064	358.68	593.408	0.56	-1.96	1.68	-432	588	-312	0	0	0	0	0	0	0	0	0	0	0	0	0	0	0	0	0	0	30758	39475	0
1651053510672	-716.872	349.408	589.992	0.91	-1.68	1.96	-435	589.5	-315	0	0	0	0	0	0	0	0	0	0	0	0	0	0	0	0	0	0	30488	39243	0
1651053510682	-739.32	356.24	588.528	0.84	-1.47	2.38	-435	591	-316.5	0	0	0	0	0	0	0	0	0	0	0	0	0	0	0	0	0	0	30167	38907	0
1651053510692	-743.224	363.56	588.04	1.47	-0.91	1.75	-433.5	589.5	-307.5	0	0	0	0	0	0	0	0	0	0	0	0	0	0	0	0	0	0	29633	38319	0
1651053510702	-734.44	358.192	584.136	1.47	0.14	0.7	-433.5	594	-307.5	0	0	0	0	0	0	0	0	0	0	0	0	0	0	0	0	0	0	29043	37688	0
1651053510712	-723.216	368.928	576.816	1.26	1.19	0.21	-435	589.5	-309	0	0	0	0	0	0	0	0	0	0	0	0	0	0	0	0	0	0	28654	37317	0
1651053510722	-705.648	378.2	569.496	1.61	0.84	-0.21	-435	588	-307.5	0	0	0	0	0	0	0	0	0	0	0	0	0	0	0	0	0	0	28605	37348	0
1651053510732	-692.472	375.272	583.16	1.75	-1.12	-0.35	-433.5	585	-312	0	0	0	0	0	0	0	0	0	0	0	0	0	0	0	0	0	0	28770	37656	0
1651053510742	-684.176	374.296	592.92	1.96	-2.73	-0.35	-435	585	-313.5	0	0	0	0	0	0	0	0	0	0	0	0	0	0	0	0	0	0	29073	38184	0
1651053510752	-696.376	362.584	591.944	1.4	-4.41	0	-435	588	-315	0	0	0	0	0	0	0	0	0	0	0	0	0	0	0	0	0	0	29634	39004	0
1651053510762	-707.112	361.12	599.752	1.54	-5.18	0.42	-433.5	588	-316.5	0	0	0	0	0	0	0	0	0	0	0	0	0	0	0	0	0	0	30556	40134	0
1651053510772	-723.704	365.512	597.312	0.7	-4.83	0.49	-432	589.5	-312	0	0	0	0	0	0	0	0	0	0	0	0	0	0	0	0	0	0	31574	41323	0
1651053510782	-717.848	366	589.992	0.28	-4.06	0.14	-433.5	588	-313.5	0	0	0	0	0	0	0	0	0	0	0	0	0	0	0	0	0	0	32547	42374	0
1651053510792	-711.504	360.632	585.6	0.14	-2.87	-0.14	-435	586.5	-315	0	0	0	0	0	0	0	0	0	0	0	0	0	0	0	0	0	0	32816	42608	0
1651053510802	-694.912	368.44	578.28	-0.21	-2.03	0.21	-435	588	-321	0	0	0	0	0	0	0	0	0	0	0	0	0	0	0	0	0	0	32449	42260	0
1651053510812	-687.104	366.488	579.256	-0.14	-1.54	0.77	-439.5	591	-319.5	0	0	0	0	0	0	0	0	0	0	0	0	0	0	0	0	0	0	31832	41697	0
1651053510822	-695.888	362.584	588.04	0.14	-3.01	1.4	-436.5	585	-312	0	0	0	0	0	0	0	0	0	0	0	0	0	0	0	0	0	0	31038	40965	0
1651053510832	-710.04	367.464	595.36	0.14	-3.71	1.54	-430.5	585	-310.5	0	0	0	0	0	0	0	0	0	0	0	0	0	0	0	0	0	0	30220	40284	0
1651053510842	-734.928	365.512	598.776	0.35	-3.64	1.47	-433.5	591	-315	0	0	0	0	0	0	0	0	0	0	0	0	0	0	0	0	0	0	29767	39996	0
1651053510852	-727.608	360.632	604.632	0.07	-3.92	1.19	-435	591	-319.5	0	0	0	0	0	0	0	0	0	0	0	0	0	0	0	0	0	0	29930	40534	0
1651053510862	-719.312	371.368	603.168	0.35	-2.52	0.84	-429	591	-319.5	0	0	0	0	0	0	0	0	0	0	0	0	0	0	0	0	0	0	30663	41521	0
1651053510872	-710.528	367.464	590.968	0.35	-0.56	1.12	-435	588	-319.5	0	0	0	0	0	0	0	0	0	0	0	0	0	0	0	0	0	0	32210	43398	0
1651053510882	-707.6	363.072	581.696	-0.07	0.21	1.68	-438	589.5	-316.5	0	0	0	0	0	0	0	0	0	0	0	0	0	0	0	0	0	0	34159	45590	0
1651053510892	-704.184	375.272	576.328	0.35	0.07	2.1	-433.5	588	-313.5	0	0	0	0	0	0	0	0	0	0	0	0	0	0	0	0	0	0	36004	47575	0
1651053510902	-713.944	371.368	579.256	0.7	-0.77	2.1	-436.5	582	-312	0	0	0	0	0	0	0	0	0	0	0	0	0	0	0	0	0	0	37608	49281	0
1651053510912	-732	369.416	565.592	0.91	-2.59	1.75	-438	582	-315	0	0	0	0	0	0	0	0	0	0	0	0	0	0	0	0	0	0	39086	50347	0
1651053510922	-729.072	372.832	596.824	1.12	-5.74	-0.07	-438	580.5	-318	0	0	0	0	0	0	0	0	0	0	0	0	0	0	0	0	0	0	40372	51692	0
1651053510932	-729.56	360.632	606.096	1.4	-5.67	-1.75	-439.5	583.5	-318	0	0	0	0	0	0	0	0	0	0	0	0	0	0	0	0	0	0	41443	52798	0
1651053510942	-711.504	355.752	602.68	1.12	-4.06	-1.4	-435	586.5	-321	0	0	0	0	0	0	0	0	0	0	0	0	0	0	0	0	0	0	42195	53509	0
1651053510953	-698.816	368.44	602.192	0.77	-1.89	-0.91	-429	589.5	-318	0	0	0	0	0	0	0	0	0	0	0	0	0	0	0	0	0	0	42324	53581	0
1651053510963	-692.96	360.632	588.04	0.7	0.28	0.42	-427.5	591	-319.5	0	0	0	0	0	0	0	0	0	0	0	0	0	0	0	0	0	0	41722	52908	0
1651053510973	-694.912	366	582.184	0.56	1.33	1.4	-435	585	-321	0	0	0	0	0	0	0	0	0	0	0	0	0	0	0	0	0	0	40432	51528	0
1651053510983	-706.136	367.952	581.208	0.28	0.21	1.47	-439.5	582	-315	0	0	0	0	0	0	0	0	0	0	0	0	0	0	0	0	0	0	37876	48915	0
1651053510993	-701.744	370.392	589.016	0.28	-1.4	1.54	-432	583.5	-313.5	0	0	0	0	0	0	0	0	0	0	0	0	0	0	0	0	0	0	35238	46243	0
1651053511003	-718.336	368.44	591.456	0.35	-2.17	1.12	-433.5	586.5	-313.5	0	0	0	0	0	0	0	0	0	0	0	0	0	0	0	0	0	0	32303	43143	0
1651053511013	-730.536	356.728	588.528	0.35	-1.89	0.77	-438	588	-316.5	0	0	0	0	0	0	0	0	0	0	0	0	0	0	0	0	0	0	28477	38973	0
1651053511023	-727.12	364.536	588.528	0.28	-1.54	0.21	-433.5	586.5	-318	0	0	0	0	0	0	0	0	0	0	0	0	0	0	0	0	0	0	22905	32810	0
1651053511033	-720.776	362.584	578.768	0	-1.26	-0.77	-436.5	586.5	-318	0	0	0	0	0	0	0	0	0	0	0	0	0	0	0	0	0	0	16726	26370	0
1651053511043	-700.768	366.488	583.16	-0.56	-2.45	-1.33	-438	589.5	-319.5	0	0	0	0	0	0	0	0	0	0	0	0	0	0	0	0	0	0	11430	20107	0
1651053511053	-705.16	368.44	586.576	-0.35	-2.17	-0.7	-435	589.5	-316.5	0	0	0	0	0	0	0	0	0	0	0	0	0	0	0	0	0	0	7721	15381	0
1651053511063	-706.624	366.976	595.36	0.35	-0.49	0.91	-436.5	583.5	-316.5	0	0	0	0	0	0	0	0	0	0	0	0	0	0	0	0	0	0	5131	11703	0
1651053511073	-720.288	369.416	591.456	0.7	-0.63	1.54	-436.5	585	-319.5	0	0	0	0	0	0	0	0	0	0	0	0	0	0	0	0	0	0	4474	10734	0
1651053511083	-718.824	359.656	599.264	1.26	-1.19	1.33	-432	583.5	-319.5	0	0	0	0	0	0	0	0	0	0	0	0	0	0	0	0	0	0	4299	10587	0
1651053511093	-722.728	362.584	593.408	1.75	-0.7	1.19	-432	582	-316.5	0	0	0	0	0	0	0	0	0	0	0	0	0	0	0	0	0	0	4757	11540	0
1651053511103	-715.896	368.928	592.92	1.54	0.7	1.33	-432	582	-316.5	0	0	0	0	0	0	0	0	0	0	0	0	0	0	0	0	0	0	6002	13683	0
1651053511113	-701.744	368.928	587.552	1.75	2.17	1.75	-436.5	583.5	-319.5	0	0	0	0	0	0	0	0	0	0	0	0	0	0	0	0	0	0	7918	16378	0
1651053511123	-695.888	365.512	589.992	1.75	3.08	2.24	-436.5	585	-316.5	0	0	0	0	0	0	0	0	0	0	0	0	0	0	0	0	0	0	9160	17622	0
1651053511133	-711.504	372.344	590.968	1.19	1.33	2.1	-438	583.5	-316.5	0	0	0	0	0	0	0	0	0	0	0	0	0	0	0	0	0	0	9234	17438	0
1651053511143	-719.312	377.224	589.992	0.91	-0.49	1.12	-436.5	580.5	-315	0	0	0	0	0	0	0	0	0	0	0	0	0	0	0	0	0	0	9399	17529	0
1651053511153	-714.432	366	596.336	0.7	-1.19	0.07	-435	583.5	-315	0	0	0	0	0	0	0	0	0	0	0	0	0	0	0	0	0	0	10166	18444	0
1651053511163	-710.528	366.976	591.456	0.07	-0.63	-0.21	-438	585	-321	0	0	0	0	0	0	0	0	0	0	0	0	0	0	0	0	0	0	11180	19684	0
1651053511173	-693.936	370.88	584.136	0.21	0.63	-0.21	-436.5	582	-319.5	0	0	0	0	0	0	0	0	0	0	0	0	0	0	0	0	0	0	12164	21028	0
1651053511183	-685.64	370.88	585.112	0.21	0.77	0	-433.5	589.5	-316.5	0	0	0	0	0	0	0	0	0	0	0	0	0	0	0	0	0	0	13635	23222	0
1651053511193	-683.688	371.368	569.008	0	-0.63	0	-436.5	588	-315	0	0	0	0	0	0	0	0	0	0	0	0	0	0	0	0	0	0	16626	27270	0
1651053511203	-691.008	367.952	585.112	0.14	-2.38	0.35	-438	585	-313.5	0	0	0	0	0	0	0	0	0	0	0	0	0	0	0	0	0	0	21638	33375	0
1651053511213	-682.712	368.44	592.432	-0.07	-3.36	1.12	-432	583.5	-316.5	0	0	0	0	0	0	0	0	0	0	0	0	0	0	0	0	0	0	28555	41260	0
1651053511223	-712.48	366.488	606.096	0	-2.87	1.19	-433.5	580.5	-319.5	0	0	0	0	0	0	0	0	0	0	0	0	0	0	0	0	0	0	37562	50671	0
1651053511233	-731.024	362.096	607.56	-0.49	-2.24	0.91	-435	583.5	-318	0	0	0	0	0	0	0	0	0	0	0	0	0	0	0	0	0	0	47154	59652	0
1651053511243	-723.704	361.608	608.048	-0.21	-1.96	-0.14	-435	586.5	-318	0	0	0	0	0	0	0	0	0	0	0	0	0	0	0	0	0	0	57233	69328	0
1651053511253	-714.92	365.024	605.12	0.56	-1.47	-0.77	-438	585	-318	0	0	0	0	0	0	0	0	0	0	0	0	0	0	0	0	0	0	69940	81927	0
1651053511263	-703.208	366.488	597.8	0.28	-1.12	-0.63	-435	585	-315	0	0	0	0	0	0	0	0	0	0	0	0	0	0	0	0	0	0	84591	95034	0
1651053511273	-698.816	365.024	601.704	-0.14	-0.7	0.35	-430.5	585	-316.5	0	0	0	0	0	0	0	0	0	0	0	0	0	0	0	0	0	0	103183	112834	0
1651053511283	-706.136	370.88	595.848	-0.14	-0.21	1.12	-429	585	-315	0	0	0	0	0	0	0	0	0	0	0	0	0	0	0	0	0	0	117132	126024	0
1651053511293	-708.576	365.024	601.216	-0.28	-0.77	1.54	-433.5	586.5	-313.5	0	0	0	0	0	0	0	0	0	0	0	0	0	0	0	0	0	0	137887	146961	0
1651053511303	-718.824	369.416	614.392	-0.21	-1.54	1.12	-432	586.5	-315	0	0	0	0	0	0	0	0	0	0	0	0	0	0	0	0	0	0	160710	172346	0
1651053511313	-722.24	365.024	615.368	0	-2.03	0.7	-432	585	-319.5	0	0	0	0	0	0	0	0	0	0	0	0	0	0	0	0	0	0	172559	186632	0
1651053511323	-705.16	368.928	613.416	-0.28	-2.17	0.7	-433.5	589.5	-321	0	0	0	0	0	0	0	0	0	0	0	0	0	0	0	0	0	0	174966	190280	0
1651053511333	-706.136	370.88	605.12	0.21	-0.7	1.47	-430.5	589.5	-318	0	0	0	0	0	0	0	0	0	0	0	0	0	0	0	0	0	0	174803	192628	0
1651053511343	-705.16	366.976	592.432	0.14	0.28	2.1	-432	586.5	-315	0	0	0	0	0	0	0	0	0	0	0	0	0	0	0	0	0	0	175420	196632	0
1651053511353	-701.256	365.024	598.288	0.35	1.12	2.87	-435	582	-315	0	0	0	0	0	0	0	0	0	0	0	0	0	0	0	0	0	0	177522	202274	0
1651053511363	-712.48	365.024	597.312	0.35	1.47	3.08	-438	585	-316.5	0	0	0	0	0	0	0	0	0	0	0	0	0	0	0	0	0	0	179955	208352	0
1651053511373	-711.504	363.56	597.8	0.14	1.26	3.22	-436.5	586.5	-315	0	0	0	0	0	0	0	0	0	0	0	0	0	0	0	0	0	0	181272	212096	0
1651053511383	-696.864	368.928	600.728	0.56	1.26	3.57	-433.5	588	-316.5	0	0	0	0	0	0	0	0	0	0	0	0	0	0	0	0	0	0	182186	213808	0
1651053511393	-684.664	372.344	602.68	0.63	1.33	3.92	-439.5	588	-318	0	0	0	0	0	0	0	0	0	0	0	0	0	0	0	0	0	0	182792	215137	0
1651053511403	-684.176	374.296	584.136	0.7	0.28	4.76	-442.5	585	-315	0	0	0	0	0	0	0	0	0	0	0	0	0	0	0	0	0	0	183372	216299	0
1651053511413	-667.584	403.576	628.056	3.08	-1.4	8.12	-438	583.5	-313.5	0	0	0	0	0	0	0	0	0	0	0	0	0	0	0	0	0	0	183877	217134	0
1651053511423	-693.936	398.208	543.144	10.64	-1.26	6.72	-442.5	585	-318	0	0	0	0	0	0	0	0	0	0	0	0	0	0	0	0	0	0	184273	217834	0
1651053511433	-709.552	365.024	598.288	1.68	-3.85	9.17	-444	582	-318	0	0	0	0	0	0	0	0	0	0	0	0	0	0	0	0	0	0	184683	218752	0
1651053511443	-726.144	375.76	606.096	3.85	-3.36	6.72	-438	582	-315	0	0	0	0	0	0	0	0	0	0	0	0	0	0	0	0	0	0	184701	219043	0
1651053511453	-716.872	378.2	591.456	7.42	-0.21	7.28	-436.5	583.5	-313.5	0	0	0	0	0	0	0	0	0	0	0	0	0	0	0	0	0	0	184167	218676	0
1651053511463	-691.496	378.688	596.336	4.48	0.14	7.56	-441	579	-306	0	0	0	0	0	0	0	0	0	0	0	0	0	0	0	0	0	0	183727	218420	0
1651053511473	-681.248	377.224	587.552	3.01	-0.7	7.77	-441	582	-304.5	0	0	0	0	0	0	0	0	0	0	0	0	0	0	0	0	0	0	183257	218205	0
1651053511483	-682.712	394.304	586.576	3.22	-1.61	6.16	-438	579	-309	0	0	0	0	0	0	0	0	0	0	0	0	0	0	0	0	0	0	182663	217922	0
1651053511493	-688.08	391.864	578.28	2.8	-2.66	7.56	-435	577.5	-312	0	0	0	0	0	0	0	0	0	0	0	0	0	0	0	0	0	0	182329	217838	0
1651053511503	-699.792	396.256	579.744	3.71	-3.57	8.05	-439.5	582	-315	0	0	0	0	0	0	0	0	0	0	0	0	0	0	0	0	0	0	182017	217897	0
1651053511513	-709.064	380.64	592.92	3.99	-4.27	8.33	-442.5	580.5	-316.5	0	0	0	0	0	0	0	0	0	0	0	0	0	0	0	0	0	0	181677	217982	0
1651053511523	-704.184	376.248	598.288	2.94	-3.85	8.47	-438	582	-313.5	0	0	0	0	0	0	0	0	0	0	0	0	0	0	0	0	0	0	181320	218077	0
1651053511533	-712.48	385.032	600.728	2.73	-2.59	7.91	-439.5	582	-312	0	0	0	0	0	0	0	0	0	0	0	0	0	0	0	0	0	0	180882	218076	0
1651053511543	-698.816	384.544	584.624	1.19	-0.91	7.14	-445.5	574.5	-313.5	0	0	0	0	0	0	0	0	0	0	0	0	0	0	0	0	0	0	180569	218158	0
1651053511553	-685.152	398.208	576.328	0.35	-0.49	7	-445.5	577.5	-310.5	0	0	0	0	0	0	0	0	0	0	0	0	0	0	0	0	0	0	180336	218159	0
1651053511563	-687.592	405.04	566.08	0.56	-0.84	7.63	-439.5	579	-309	0	0	0	0	0	0	0	0	0	0	0	0	0	0	0	0	0	0	180164	218131	0
1651053511573	-696.376	398.208	578.28	0.56	-1.96	8.33	-441	577.5	-310.5	0	0	0	0	0	0	0	0	0	0	0	0	0	0	0	0	0	0	179989	218145	0
1651053511583	-707.112	390.888	587.064	0.98	-4.2	7	-442.5	580.5	-312	0	0	0	0	0	0	0	0	0	0	0	0	0	0	0	0	0	0	179847	218118	0
1651053511593	-706.136	385.52	592.92	0.42	-6.51	6.44	-445.5	577.5	-313.5	0	0	0	0	0	0	0	0	0	0	0	0	0	0	0	0	0	0	179723	218061	0
1651053511603	-709.552	390.888	597.312	-0.21	-6.44	5.88	-448.5	582	-312	0	0	0	0	0	0	0	0	0	0	0	0	0	0	0	0	0	0	179627	218012	0
1651053511613	-717.848	388.448	600.24	-0.56	-5.46	4.55	-448.5	585	-312	0	0	0	0	0	0	0	0	0	0	0	0	0	0	0	0	0	0	179563	217980	0
1651053511623	-724.68	384.056	586.576	0.07	-4.9	4.69	-447	582	-315	0	0	0	0	0	0	0	0	0	0	0	0	0	0	0	0	0	0	179490	217941	0
1651053511633	-690.52	392.84	596.824	0.14	-4.41	2.52	-447	579	-310.5	0	0	0	0	0	0	0	0	0	0	0	0	0	0	0	0	0	0	179413	217936	0
1651053511643	-672.952	389.424	593.896	-1.12	-2.17	5.6	-441	576	-312	0	0	0	0	0	0	0	0	0	0	0	0	0	0	0	0	0	0	179365	217910	0
1651053511653	-680.76	389.424	600.24	-0.84	-1.68	6.3	-439.5	570	-315	0	0	0	0	0	0	0	0	0	0	0	0	0	0	0	0	0	0	179331	217905	0
1651053511663	-696.864	390.888	597.8	-0.84	-1.82	7	-447	570	-315	0	0	0	0	0	0	0	0	0	0	0	0	0	0	0	0	0	0	179284	217900	0
1651053511673	-697.352	381.616	610.488	0.14	-1.19	6.79	-448.5	574.5	-315	0	0	0	0	0	0	0	0	0	0	0	0	0	0	0	0	0	0	179242	217919	0
1651053511683	-710.04	382.592	608.536	0.07	-0.91	6.3	-447	576	-315	0	0	0	0	0	0	0	0	0	0	0	0	0	0	0	0	0	0	179204	217929	0
1651053511693	-712.968	381.616	606.584	-1.47	-1.47	5.39	-447	576	-312	0	0	0	0	0	0	0	0	0	0	0	0	0	0	0	0	0	0	179148	217934	0
1651053511703	-720.288	394.792	601.704	-1.75	-1.82	4.06	-444	574.5	-312	0	0	0	0	0	0	0	0	0	0	0	0	0	0	0	0	0	0	179110	217930	0
1651053511713	-702.72	400.16	593.896	-1.33	-2.24	3.01	-448.5	574.5	-315	0	0	0	0	0	0	0	0	0	0	0	0	0	0	0	0	0	0	179042	217972	0
1651053511723	-690.032	405.04	594.872	-1.4	-2.87	3.36	-448.5	579	-316.5	0	0	0	0	0	0	0	0	0	0	0	0	0	0	0	0	0	0	178888	218014	0
1651053511733	-696.864	409.432	607.56	-0.07	-3.29	4.9	-445.5	574.5	-315	0	0	0	0	0	0	0	0	0	0	0	0	0	0	0	0	0	0	178906	217867	0
1651053511743	-682.712	385.52	637.328	-8.05	-1.89	17.08	-447	574.5	-312	0	0	0	0	0	0	0	0	0	0	0	0	0	0	0	0	0	0	179021	217572	0
1651053511753	-694.912	403.576	651.968	-7.77	4.97	23.73	-448.5	576	-310.5	0	0	0	0	0	0	0	0	0	0	0	0	0	0	0	0	0	0	179063	217511	0
1651053511763	-714.432	371.856	651.968	-8.33	7.35	24.08	-447	570	-313.5	0	0	0	0	0	0	0	0	0	0	0	0	0	0	0	0	0	0	179047	217592	0
1651053511773	-734.928	380.152	640.744	-12.6	5.88	23.87	-450	568.5	-315	0	0	0	0	0	0	0	0	0	0	0	0	0	0	0	0	0	0	178997	217776	0
1651053511783	-708.088	354.776	603.656	-15.68	5.88	25.27	-450	564	-318	0	0	0	0	0	0	0	0	0	0	0	0	0	0	0	0	0	0	178965	217999	0
1651053511793	-712.48	418.216	603.656	-18.97	2.38	24.64	-451.5	562.5	-318	0	0	0	0	0	0	0	0	0	0	0	0	0	0	0	0	0	0	178948	218224	0
1651053511803	-696.864	396.744	614.392	-20.93	-3.36	21.28	-457.5	562.5	-316.5	0	0	0	0	0	0	0	0	0	0	0	0	0	0	0	0	0	0	178947	218318	0
1651053511813	-668.56	396.256	604.144	-22.75	-5.53	19.04	-456	562.5	-318	0	0	0	0	0	0	0	0	0	0	0	0	0	0	0	0	0	0	178964	218434	0
1651053511823	-652.944	394.792	595.36	-23.1	-4.34	21.42	-460.5	561	-316.5	0	0	0	0	0	0	0	0	0	0	0	0	0	0	0	0	0	0	178926	218513	0
1651053511833	-662.704	408.944	598.288	-23.31	-5.81	26.32	-457.5	561	-315	0	0	0	0	0	0	0	0	0	0	0	0	0	0	0	0	0	0	178822	218496	0
1651053511843	-741.272	401.136	610	-28.14	-13.79	41.51	-460.5	558	-321	0	0	0	0	0	0	0	0	0	0	0	0	0	0	0	0	0	0	178706	218312	0
1651053511853	-761.28	391.376	633.912	-32.97	-16.31	52.57	-468	564	-325.5	0	0	0	0	0	0	0	0	0	0	0	0	0	0	0	0	0	0	178580	218045	0
1651053511863	-714.92	346.48	647.088	-36.54	-17.57	58.8	-471	564	-328.5	0	0	0	0	0	0	0	0	0	0	0	0	0	0	0	0	0	0	178437	217691	0
1651053511873	-719.312	374.784	654.896	-41.37	-16.17	57.19	-475.5	552	-333	0	0	0	0	0	0	0	0	0	0	0	0	0	0	0	0	0	0	178340	217443	0
1651053511883	-731.512	477.264	619.76	-39.9	-15.4	60.97	-477	546	-333	0	0	0	0	0	0	0	0	0	0	0	0	0	0	0	0	0	0	178275	217261	0
1651053511893	-698.328	428.464	606.096	-39.55	-14.84	68.95	-477	543	-333	0	0	0	0	0	0	0	0	0	0	0	0	0	0	0	0	0	0	178223	217070	0
1651053511903	-657.336	410.896	598.288	-40.18	-18.62	73.29	-486	540	-342	0	0	0	0	0	0	0	0	0	0	0	0	0	0	0	0	0	0	178288	216936	0
1651053511913	-630.008	446.032	594.384	-45.64	-23.38	73.22	-498	537	-351	0	0	0	0	0	0	0	0	0	0	0	0	0	0	0	0	0	0	178321	216836	0
1651053511923	-636.352	454.328	624.152	-52.71	-31.92	75.53	-502.5	531	-354	0	0	0	0	0	0	0	0	0	0	0	0	0	0	0	0	0	0	178290	216902	0
1651053511933	-640.744	431.88	665.144	-57.68	-39.34	77.35	-504	535.5	-354	0	0	0	0	0	0	0	0	0	0	0	0	0	0	0	0	0	0	178263	216972	0
1651053511943	-759.816	529.48	720.776	-45.64	-43.12	81.62	-504	529.5	-364.5	0	0	0	0	0	0	0	0	0	0	0	0	0	0	0	0	0	0	178279	217018	0
1651053511953	-719.8	426.512	655.384	-43.61	-50.96	84.56	-511.5	519	-372	0	0	0	0	0	0	0	0	0	0	0	0	0	0	0	0	0	0	178335	217090	0
1651053511963	-671	427.488	662.216	-64.33	-62.44	87.36	-511.5	519	-372	0	0	0	0	0	0	0	0	0	0	0	0	0	0	0	0	0	0	178393	217170	0
1651053511973	-620.736	431.392	666.12	-78.47	-68.95	89.53	-519	514.5	-376.5	0	0	0	0	0	0	0	0	0	0	0	0	0	0	0	0	0	0	178431	217233	0
1651053511983	-579.256	442.128	677.344	-77.77	-61.81	98.14	-528	511.5	-387	0	0	0	0	0	0	0	0	0	0	0	0	0	0	0	0	0	0	178469	217277	0
1651053511993	-579.256	470.432	699.304	-74.06	-62.86	114.17	-537	511.5	-394.5	0	0	0	0	0	0	0	0	0	0	0	0	0	0	0	0	0	0	178499	217355	0
1651053512003	-555.832	380.152	713.944	-69.3	-73.36	128.94	-540	501	-403.5	0	0	0	0	0	0	0	0	0	0	0	0	0	0	0	0	0	0	178528	217414	0
1651053512013	-468.968	373.32	712.48	-58.03	-80.36	143.01	-546	489	-414	0	0	0	0	0	0	0	0	0	0	0	0	0	0	0	0	0	0	178550	217482	0
1651053512023	-418.704	413.824	711.016	-54.67	-82.04	148.61	-547.5	478.5	-421.5	0	0	0	0	0	0	0	0	0	0	0	0	0	0	0	0	0	0	178571	217534	0
1651053512033	-441.152	376.736	753.96	-63.98	-75.18	146.02	-555	469.5	-433.5	0	0	0	0	0	0	0	0	0	0	0	0	0	0	0	0	0	0	178578	217583	0
1651053512043	-387.96	333.304	840.824	-77.91	-74.83	130.27	-561	459	-441	0	0	0	0	0	0	0	0	0	0	0	0	0	0	0	0	0	0	178610	217605	0
1651053512053	-321.104	272.792	896.456	-74.2	-72.31	120.4	-567	445.5	-447	0	0	0	0	0	0	0	0	0	0	0	0	0	0	0	0	0	0	178595	217589	0
1651053512063	-297.192	346.968	868.64	-59.92	-56.21	122.71	-570	433.5	-460.5	0	0	0	0	0	0	0	0	0	0	0	0	0	0	0	0	0	0	178577	217562	0
1651053512073	-297.68	425.048	780.312	-48.23	-64.82	125.86	-574.5	423	-468	0	0	0	0	0	0	0	0	0	0	0	0	0	0	0	0	0	0	178569	217553	0
1651053512083	-308.904	458.72	701.744	-55.93	-92.19	125.51	-579	412.5	-469.5	0	0	0	0	0	0	0	0	0	0	0	0	0	0	0	0	0	0	178548	217522	0
1651053512093	-309.88	398.696	758.352	-79.17	-108.85	123.55	-579	406.5	-480	0	0	0	0	0	0	0	0	0	0	0	0	0	0	0	0	0	0	178528	217475	0
1651053512103	-350.384	366	850.096	-91.98	-102.83	129.99	-582	394.5	-492	0	0	0	0	0	0	0	0	0	0	0	0	0	0	0	0	0	0	178496	217414	0
1651053512113	-582.184	400.648	1003.816	-104.79	-18.2	131.11	-582	373.5	-504	0	0	0	0	0	0	0	0	0	0	0	0	0	0	0	0	0	0	178477	217332	0
1651053512123	-475.8	310.856	1110.2	-94.01	42.63	161	-589.5	360	-514.5	0	0	0	0	0	0	0	0	0	0	0	0	0	0	0	0	0	0	178443	217241	0
1651053512133	-321.104	322.568	1093.608	-48.93	81.97	170.1	-594	354	-519	0	0	0	0	0	0	0	0	0	0	0	0	0	0	0	0	0	0	178434	217128	0
1651053512143	-297.192	407.48	974.048	-14.14	117.6	172.97	-592.5	336	-522	0	0	0	0	0	0	0	0	0	0	0	0	0	0	0	0	0	0	178441	217034	0
1651053512153	-240.584	525.088	819.352	12.39	125.86	153.72	-604.5	321	-523.5	0	0	0	0	0	0	0	0	0	0	0	0	0	0	0	0	0	0	178522	216942	0
1651053512163	-262.544	584.624	723.704	13.16	106.96	134.4	-609	319.5	-522	0	0	0	0	0	0	0	0	0	0	0	0	0	0	0	0	0	0	178561	216902	0
1651053512173	-304.024	588.528	689.056	-0.07	82.18	121.31	-616.5	310.5	-519	0	0	0	0	0	0	0	0	0	0	0	0	0	0	0	0	0	0	178578	216883	0
1651053512183	-367.464	546.56	681.736	-34.37	55.86	115.15	-622.5	301.5	-519	0	0	0	0	0	0	0	0	0	0	0	0	0	0	0	0	0	0	178576	216935	0
1651053512193	-399.184	526.064	710.04	-58.17	37.94	134.82	-624	294	-520.5	0	0	0	0	0	0	0	0	0	0	0	0	0	0	0	0	0	0	178549	216961	0
1651053512203	-405.04	509.96	735.904	-76.79	38.43	159.39	-624	286.5	-523.5	0	0	0	0	0	0	0	0	0	0	0	0	0	0	0	0	0	0	178514	217011	0
1651053512213	-372.344	493.368	753.96	-99.19	43.12	180.25	-628.5	273	-529.5	0	0	0	0	0	0	0	0	0	0	0	0	0	0	0	0	0	0	178477	217033	0
1651053512223	-321.592	517.28	753.96	-119.77	41.58	188.51	-628.5	265.5	-534	0	0	0	0	0	0	0	0	0	0	0	0	0	0	0	0	0	0	178457	217043	0
1651053512233	-360.144	554.856	797.88	-133.63	38.22	188.02	-627	250.5	-541.5	0	0	0	0	0	0	0	0	0	0	0	0	0	0	0	0	0	0	178454	217007	0
1651053512243	-319.64	447.008	908.168	-147.35	37.03	178.78	-628.5	231	-558	0	0	0	0	0	0	0	0	0	0	0	0	0	0	0	0	0	0	178444	216943	0
1651053512253	-251.808	340.624	902.8	-146.51	35.35	164.15	-627	216	-574.5	0	0	0	0	0	0	0	0	0	0	0	0	0	0	0	0	0	0	178447	216920	0
1651053512263	-271.328	316.712	926.224	-139.37	35	160.37	-622.5	196.5	-586.5	0	0	0	0	0	0	0	0	0	0	0	0	0	0	0	0	0	0	178460	216883	0
1651053512273	-243.512	287.432	932.08	-124.25	32.62	162.33	-618	183	-594	0	0	0	0	0	0	0	0	0	0	0	0	0	0	0	0	0	0	178476	216862	0
1651053512283	-243.024	342.576	972.096	-102.41	18.83	169.68	-615	177	-606	0	0	0	0	0	0	0	0	0	0	0	0	0	0	0	0	0	0	178472	216852	0
1651053512293	-236.68	382.592	1006.744	-83.86	-4.27	167.37	-612	163.5	-618	0	0	0	0	0	0	0	0	0	0	0	0	0	0	0	0	0	0	178486	216855	0
1651053512303	-191.296	352.336	1016.504	-69.37	-15.05	154.14	-612	148.5	-624	0	0	0	0	0	0	0	0	0	0	0	0	0	0	0	0	0	0	178475	216856	0
1651053512313	-255.224	382.104	1037	-56.98	-21.56	142.31	-603	136.5	-633	0	0	0	0	0	0	0	0	0	0	0	0	0	0	0	0	0	0	178464	216904	0
1651053512323	-370.88	299.632	600.24	87.43	63.7	90.79	-592.5	124.5	-642	0	0	0	0	0	0	0	0	0	0	0	0	0	0	0	0	0	0	178442	216923	0
1651053512333	-428.464	388.448	751.032	67.27	-39.69	100.52	-597	114	-645	0	0	0	0	0	0	0	0	0	0	0	0	0	0	0	0	0	0	178429	216938	0
1651053512343	-278.16	386.496	867.176	28	12.39	158.55	-601.5	106.5	-642	0	0	0	0	0	0	0	0	0	0	0	0	0	0	0	0	0	0	178428	216954	0
1651053512353	-157.136	449.448	932.568	25.41	3.29	219.59	-604.5	90	-640.5	0	0	0	0	0	0	0	0	0	0	0	0	0	0	0	0	0	0	178431	216928	0
1651053512363	38.552	441.64	919.88	19.32	8.12	197.33	-606	75	-640.5	0	0	0	0	0	0	0	0	0	0	0	0	0	0	0	0	0	0	178416	216911	0
1651053512373	324.032	128.344	364.536	-52.99	85.82	124.32	-601.5	63	-640.5	0	0	0	0	0	0	0	0	0	0	0	0	0	0	0	0	0	0	178427	216824	0
1651053512383	-301.096	380.64	957.456	-86.52	89.6	88.41	-594	51	-648	0	0	0	0	0	0	0	0	0	0	0	0	0	0	0	0	0	0	178412	216803	0
1651053512393	-321.592	290.36	1007.72	-66.64	87.99	119.77	-591	48	-652.5	0	0	0	0	0	0	0	0	0	0	0	0	0	0	0	0	0	0	178430	216784	0
1651053512403	-352.824	303.048	927.2	-59.43	123.13	171.78	-591	43.5	-657	0	0	0	0	0	0	0	0	0	0	0	0	0	0	0	0	0	0	178426	216786	0
1651053512413	-453.352	309.392	976	-75.18	142.1	205.38	-585	36	-669	0	0	0	0	0	0	0	0	0	0	0	0	0	0	0	0	0	0	178417	216807	0
1651053512423	-456.768	284.016	1000.4	-84.63	145.67	246.12	-576	30	-681	0	0	0	0	0	0	0	0	0	0	0	0	0	0	0	0	0	0	178416	216830	0
1651053512433	-580.72	482.632	870.104	-72.38	95.97	257.6	-573	24	-685.5	0	0	0	0	0	0	0	0	0	0	0	0	0	0	0	0	0	0	178409	216846	0
1651053512443	-357.704	551.928	725.656	-30.52	18.9	195.37	-565.5	13.5	-697.5	0	0	0	0	0	0	0	0	0	0	0	0	0	0	0	0	0	0	178383	216858	0
1651053512453	-113.216	667.584	638.792	9.31	3.64	172.34	-553.5	0	-705	0	0	0	0	0	0	0	0	0	0	0	0	0	0	0	0	0	0	178384	216875	0
1651053512463	-72.224	529.968	516.792	70.35	24.36	295.68	-550.5	-18	-705	0	0	0	0	0	0	0	0	0	0	0	0	0	0	0	0	0	0	178383	216865	0
1651053512473	-206.912	583.648	336.72	128.03	49.14	355.88	-546	-34.5	-712.5	0	0	0	0	0	0	0	0	0	0	0	0	0	0	0	0	0	0	178360	216857	0
1651053512483	-238.632	609.024	370.88	163.66	65.52	342.79	-541.5	-52.5	-714	0	0	0	0	0	0	0	0	0	0	0	0	0	0	0	0	0	0	178369	216831	0
1651053512493	-235.216	610	460.672	218.75	58.17	287.98	-544.5	-75	-706.5	0	0	0	0	0	0	0	0	0	0	0	0	0	0	0	0	0	0	178380	216813	0
1651053512503	-301.096	546.56	597.8	196.28	13.16	252.91	-538.5	-99	-693	0	0	0	0	0	0	0	0	0	0	0	0	0	0	0	0	0	0	178393	216780	0
1651053512513	-240.584	566.568	818.864	84.84	-21.56	228.13	-540	-118.5	-679.5	0	0	0	0	0	0	0	0	0	0	0	0	0	0	0	0	0	0	178401	216772	0
1651053512523	-121.024	578.28	858.88	-28.28	-65.94	214.41	-540	-135	-681	0	0	0	0	0	0	0	0	0	0	0	0	0	0	0	0	0	0	178401	216763	0
1651053512533	5.368	640.256	1002.84	-59.43	-87.57	234.99	-532.5	-148.5	-681	0	0	0	0	0	0	0	0	0	0	0	0	0	0	0	0	0	0	178411	216777	0
1651053512543	37.088	534.36	1008.696	-21.7	-69.09	199.99	-523.5	-172.5	-678	0	0	0	0	0	0	0	0	0	0	0	0	0	0	0	0	0	0	178404	216786	0
1651053512553	-35.624	451.888	996.008	12.53	-77.21	181.86	-516	-198	-676.5	0	0	0	0	0	0	0	0	0	0	0	0	0	0	0	0	0	0	178402	216782	0
1651053512563	-108.824	377.712	950.136	-14.7	-63.91	190.26	-508.5	-216	-675	0	0	0	0	0	0	0	0	0	0	0	0	0	0	0	0	0	0	178395	216778	0
1651053512573	32.208	311.832	890.112	-37.17	-24.01	203	-501	-229.5	-675	0	0	0	0	0	0	0	0	0	0	0	0	0	0	0	0	0	0	178383	216784	0
1651053512583	105.408	284.992	776.896	-51.66	-13.37	213.08	-489	-240	-673.5	0	0	0	0	0	0	0	0	0	0	0	0	0	0	0	0	0	0	178379	216758	0
1651053512593	101.992	292.8	712.968	-24.43	-6.16	177.8	-472.5	-258	-675	0	0	0	0	0	0	0	0	0	0	0	0	0	0	0	0	0	0	178370	216763	0
1651053512603	219.6	326.96	840.336	-37.38	-33.39	134.47	-456	-280.5	-676.5	0	0	0	0	0	0	0	0	0	0	0	0	0	0	0	0	0	0	178380	216746	0
1651053512613	205.936	204.96	898.896	-0.07	-6.65	161.91	-453	-289.5	-685.5	0	0	0	0	0	0	0	0	0	0	0	0	0	0	0	0	0	0	178381	216747	0
1651053512623	163.48	251.808	930.128	12.46	35.84	153.86	-447	-295.5	-690	0	0	0	0	0	0	0	0	0	0	0	0	0	0	0	0	0	0	178387	216754	0
1651053512634	234.728	289.872	1016.992	4.97	45.08	154.28	-435	-306	-693	0	0	0	0	0	0	0	0	0	0	0	0	0	0	0	0	0	0	178378	216770	0
1651053512644	268.888	355.752	1043.344	-13.86	0	158.27	-426	-316.5	-694.5	0	0	0	0	0	0	0	0	0	0	0	0	0	0	0	0	0	0	178374	216761	0
1651053512654	146.4	316.224	1052.616	-22.26	-59.64	138.95	-414	-324	-697.5	0	0	0	0	0	0	0	0	0	0	0	0	0	0	0	0	0	0	178376	216776	0
1651053512664	133.712	310.856	1060.912	-69.02	-52.29	156.8	-406.5	-330	-699	0	0	0	0	0	0	0	0	0	0	0	0	0	0	0	0	0	0	178371	216798	0
1651053512674	342.088	284.992	821.304	-49.49	51.38	158.69	-399	-339	-697.5	0	0	0	0	0	0	0	0	0	0	0	0	0	0	0	0	0	0	178362	216814	0
1651053512684	99.064	478.728	1081.408	21.77	86.24	169.54	-388.5	-349.5	-703.5	0	0	0	0	0	0	0	0	0	0	0	0	0	0	0	0	0	0	178361	216822	0
1651053512694	193.248	558.76	916.952	42.21	18.76	150.29	-379.5	-352.5	-718.5	0	0	0	0	0	0	0	0	0	0	0	0	0	0	0	0	0	0	178367	216816	0
1651053512704	131.76	529.968	892.552	55.02	-10.08	82.11	-369	-354	-729	0	0	0	0	0	0	0	0	0	0	0	0	0	0	0	0	0	0	178367	216832	0
1651053512714	268.888	419.68	932.568	92.12	27.16	54.11	-366	-358.5	-726	0	0	0	0	0	0	0	0	0	0	0	0	0	0	0	0	0	0	178379	216825	0
1651053512724	369.904	323.056	1023.336	96.95	75.04	60.69	-369	-354	-729	0	0	0	0	0	0	0	0	0	0	0	0	0	0	0	0	0	0	178378	216825	0
1651053512734	466.528	277.184	1034.072	46.2	86.59	65.73	-375	-348	-736.5	0	0	0	0	0	0	0	0	0	0	0	0	0	0	0	0	0	0	178368	216819	0
1651053512744	504.104	249.856	995.52	-21.14	79.94	63.7	-382.5	-345	-741	0	0	0	0	0	0	0	0	0	0	0	0	0	0	0	0	0	0	178384	216829	0
1651053512754	435.296	207.4	944.768	-37.8	52.29	82.18	-376.5	-342	-747	0	0	0	0	0	0	0	0	0	0	0	0	0	0	0	0	0	0	178374	216797	0
1651053512764	335.256	220.576	832.04	-6.23	-4.62	87.57	-373.5	-340.5	-756	0	0	0	0	0	0	0	0	0	0	0	0	0	0	0	0	0	0	178391	216760	0
1651053512774	241.072	316.712	867.664	21.49	-19.6	49.42	-372	-337.5	-763.5	0	0	0	0	0	0	0	0	0	0	0	0	0	0	0	0	0	0	178386	216742	0
1651053512784	179.584	364.048	942.816	55.09	-7.35	25.41	-369	-330	-759	0	0	0	0	0	0	0	0	0	0	0	0	0	0	0	0	0	0	178383	216711	0
1651053512794	160.064	395.768	990.152	78.33	13.3	12.25	-373.5	-327	-754.5	0	0	0	0	0	0	0	0	0	0	0	0	0	0	0	0	0	0	178376	216669	0
1651053512804	173.24	439.688	1002.352	86.1	31.43	15.12	-385.5	-325.5	-753	0	0	0	0	0	0	0	0	0	0	0	0	0	0	0	0	0	0	178359	216667	0
1651053512814	-615.368	-168.848	2353.624	-112	156.87	54.04	-390	-321	-750	0	0	0	0	0	0	0	0	0	0	0	0	0	0	0	0	0	0	178352	216639	0
1651053512824	167.872	146.4	1049.2	-87.22	104.51	77	-390	-315	-763.5	0	0	0	0	0	0	0	0	0	0	0	0	0	0	0	0	0	0	178355	216646	0
1651053512834	-43.92	28.792	944.28	-96.11	72.87	87.71	-385.5	-307.5	-783	0	0	0	0	0	0	0	0	0	0	0	0	0	0	0	0	0	0	178345	216629	0
1651053512844	575.352	285.968	1232.688	-118.51	36.26	92.47	-376.5	-298.5	-789	0	0	0	0	0	0	0	0	0	0	0	0	0	0	0	0	0	0	178350	216629	0
1651053512854	999.912	467.992	934.032	-114.94	38.01	77.77	-364.5	-295.5	-798	0	0	0	0	0	0	0	0	0	0	0	0	0	0	0	0	0	0	178352	216637	0
1651053512864	634.4	240.584	844.728	-85.33	104.02	62.58	-352.5	-297	-807	0	0	0	0	0	0	0	0	0	0	0	0	0	0	0	0	0	0	178344	216625	0
1651053512874	-82.472	-177.144	896.456	-82.32	151.41	77.7	-345	-288	-811.5	0	0	0	0	0	0	0	0	0	0	0	0	0	0	0	0	0	0	178362	216625	0
1651053512884	355.752	-62.952	896.944	-99.47	164.43	62.37	-337.5	-270	-828	0	0	0	0	0	0	0	0	0	0	0	0	0	0	0	0	0	0	178354	216592	0
1651053512894	317.2	-17.08	883.28	-124.11	162.82	49.98	-330	-258	-840	0	0	0	0	0	0	0	0	0	0	0	0	0	0	0	0	0	0	178416	216516	0
1651053512904	284.504	52.216	810.568	-142.52	185.36	54.95	-319.5	-246	-849	0	0	0	0	0	0	0	0	0	0	0	0	0	0	0	0	0	0	178440	216487	0
1651053512914	264.008	220.576	890.6	-154.63	217.84	51.66	-307.5	-234	-858	0	0	0	0	0	0	0	0	0	0	0	0	0	0	0	0	0	0	178444	216505	0
1651053512924	84.424	870.104	3646.336	-144.9	144.06	51.94	-289.5	-217.5	-879	0	0	0	0	0	0	0	0	0	0	0	0	0	0	0	0	0	0	178443	216516	0
1651053512934	-346.48	454.328	-140.544	-135.03	-178.5	70.42	-274.5	-205.5	-889.5	0	0	0	0	0	0	0	0	0	0	0	0	0	0	0	0	0	0	178451	216518	0
1651053512944	498.736	191.784	1014.552	-138.67	-143.29	66.71	-259.5	-205.5	-883.5	0	0	0	0	0	0	0	0	0	0	0	0	0	0	0	0	0	0	178497	216505	0
1651053512954	215.208	305.488	988.688	-75.6	-41.65	47.88	-247.5	-225	-880.5	0	0	0	0	0	0	0	0	0	0	0	0	0	0	0	0	0	0	178566	216513	0
1651053512964	190.808	126.88	977.952	-38.5	21.7	40.32	-238.5	-241.5	-882	0	0	0	0	0	0	0	0	0	0	0	0	0	0	0	0	0	0	178598	216519	0
1651053512974	32.696	-283.04	986.248	26.67	120.68	23.31	-229.5	-238.5	-888	0	0	0	0	0	0	0	0	0	0	0	0	0	0	0	0	0	0	178622	216519	0
1651053512984	-113.704	-184.464	917.928	104.37	249.83	25.13	-231	-225	-888	0	0	0	0	0	0	0	0	0	0	0	0	0	0	0	0	0	0	178633	216530	0
1651053512994	-254.248	-328.912	391.376	162.82	391.02	29.12	-243	-208.5	-897	0	0	0	0	0	0	0	0	0	0	0	0	0	0	0	0	0	0	178692	216537	0
1651053513004	-9.272	1031.144	4434.944	-260.47	335.44	44.24	-256.5	-172.5	-916.5	0	0	0	0	0	0	0	0	0	0	0	0	0	0	0	0	0	0	178832	216588	0
1651053513014	-94.184	-269.376	1290.76	-260.33	57.89	162.47	-249	-135	-936	0	0	0	0	0	0	0	0	0	0	0	0	0	0	0	0	0	0	178927	216623	0
1651053513024	826.672	2309.704	712.968	-181.16	-312.62	120.75	-219	-130.5	-940.5	0	0	0	0	0	0	0	0	0	0	0	0	0	0	0	0	0	0	178925	216623	0
1651053513034	-159.576	279.624	647.576	-301.21	85.68	58.17	-186	-147	-943.5	0	0	0	0	0	0	0	0	0	0	0	0	0	0	0	0	0	0	178948	216654	0
1651053513044	-1297.104	2905.064	7201.904	-358.61	-113.05	53.48	-151.5	-160.5	-951	0	0	0	0	0	0	0	0	0	0	0	0	0	0	0	0	0	0	178939	216642	0
1651053513054	-386.984	-53.68	232.288	-29.33	46.34	59.92	-126	-169.5	-954	0	0	0	0	0	0	0	0	0	0	0	0	0	0	0	0	0	0	178938	216664	0
1651053513064	-55.144	-14.152	400.16	9.1	-8.96	68.81	-117	-175.5	-946.5	0	0	0	0	0	0	0	0	0	0	0	0	0	0	0	0	0	0	178979	216702	0
1651053513074	118.096	-173.24	1009.672	-1.47	4.97	64.26	-112.5	-183	-949.5	0	0	0	0	0	0	0	0	0	0	0	0	0	0	0	0	0	0	179104	216755	0
1651053513084	17.568	-26.84	791.048	-6.72	-0.63	20.58	-111	-189	-955.5	0	0	0	0	0	0	0	0	0	0	0	0	0	0	0	0	0	0	179180	216781	0
1651053513094	34.648	-101.504	1189.744	-19.32	-0.77	-6.79	-103.5	-192	-955.5	0	0	0	0	0	0	0	0	0	0	0	0	0	0	0	0	0	0	179232	216810	0
1651053513104	166.408	-135.176	1050.176	-4.55	2.66	-6.79	-94.5	-196.5	-955.5	0	0	0	0	0	0	0	0	0	0	0	0	0	0	0	0	0	0	179273	216818	0
1651053513114	121.512	-168.848	922.808	5.67	1.4	-14.98	-85.5	-202.5	-958.5	0	0	0	0	0	0	0	0	0	0	0	0	0	0	0	0	0	0	179327	216827	0
1651053513124	-101.992	-9.76	1034.56	4.83	-0.07	-9.73	-75	-207	-964.5	0	0	0	0	0	0	0	0	0	0	0	0	0	0	0	0	0	0	179398	216858	0
1651053513134	113.216	-60.024	930.128	1.12	-0.84	-7.14	-67.5	-217.5	-963	0	0	0	0	0	0	0	0	0	0	0	0	0	0	0	0	0	0	179459	216883	0
1651053513144	226.92	-3.416	888.648	11.9	-13.65	-40.18	-66	-226.5	-960	0	0	0	0	0	0	0	0	0	0	0	0	0	0	0	0	0	0	179478	216881	0
1651053513154	134.2	34.16	966.24	0	0.35	-65.94	-67.5	-228	-961.5	0	0	0	0	0	0	0	0	0	0	0	0	0	0	0	0	0	0	179466	216883	0
1651053513164	259.616	-150.792	934.032	1.4	-2.1	-73.92	-64.5	-229.5	-963	0	0	0	0	0	0	0	0	0	0	0	0	0	0	0	0	0	0	179440	216880	0
1651053513174	-48.8	134.2	1188.28	6.09	-0.7	-70.98	-57	-231	-966	0	0	0	0	0	0	0	0	0	0	0	0	0	0	0	0	0	0	179445	216889	0
1651053513184	-396.256	347.456	1483.032	7.7	6.02	-81.2	-54	-237	-966	0	0	0	0	0	0	0	0	0	0	0	0	0	0	0	0	0	0	179509	216925	0
1651053513194	190.32	-15.128	1203.896	29.68	8.61	-98.07	-54	-241.5	-964.5	0	0	0	0	0	0	0	0	0	0	0	0	0	0	0	0	0	0	179589	216968	0
1651053513204	-108.336	225.944	1411.784	51.8	6.93	-108.85	-55.5	-244.5	-966	0	0	0	0	0	0	0	0	0	0	0	0	0	0	0	0	0	0	179622	216974	0
1651053513214	437.248	-289.872	978.44	77.21	30.24	-122.43	-63	-250.5	-966	0	0	0	0	0	0	0	0	0	0	0	0	0	0	0	0	0	0	179634	216948	0
1651053513224	-5.368	113.704	1118.984	126.35	38.22	-132.65	-70.5	-246	-958.5	0	0	0	0	0	0	0	0	0	0	0	0	0	0	0	0	0	0	179619	216933	0
1651053513234	180.072	-154.696	981.856	224.21	126.84	-159.11	-85.5	-234	-958.5	0	0	0	0	0	0	0	0	0	0	0	0	0	0	0	0	0	0	179616	216940	0
1651053513244	-671.976	393.328	1758.752	330.54	120.26	-160.3	-109.5	-225	-966	0	0	0	0	0	0	0	0	0	0	0	0	0	0	0	0	0	0	179740	217011	0
1651053513254	-15.128	434.32	104.92	384.3	132.86	-136.15	-148.5	-216	-970.5	0	0	0	0	0	0	0	0	0	0	0	0	0	0	0	0	0	0	179830	217085	0
1651053513264	-838.384	-918.904	-195.2	367.08	130.62	-43.05	-192	-205.5	-960	0	0	0	0	0	0	0	0	0	0	0	0	0	0	0	0	0	0	179822	217064	0
1651053513274	-415.776	-39.528	163.968	378.21	175.49	-109.76	-228	-198	-955.5	0	0	0	0	0	0	0	0	0	0	0	0	0	0	0	0	0	0	179848	217077	0
1651053513284	79.544	-22.448	103.944	457.17	233.94	-157.78	-265.5	-186	-961.5	0	0	0	0	0	0	0	0	0	0	0	0	0	0	0	0	0	0	179905	217116	0
1651053513294	143.96	235.216	97.6	458.29	293.58	-196.35	-315	-162	-951	0	0	0	0	0	0	0	0	0	0	0	0	0	0	0	0	0	0	179972	217188	0
1651053513304	-1474.736	256.2	2937.76	317.03	251.3	-184.24	-361.5	-130.5	-943.5	0	0	0	0	0	0	0	0	0	0	0	0	0	0	0	0	0	0	180026	217199	0
1651053513314	265.472	288.896	719.312	184.94	88.34	74.13	-390	-108	-937.5	0	0	0	0	0	0	0	0	0	0	0	0	0	0	0	0	0	0	180101	217242	0
1651053513324	-138.592	67.344	1808.04	63.77	-33.25	-148.26	-412.5	-100.5	-937.5	0	0	0	0	0	0	0	0	0	0	0	0	0	0	0	0	0	0	180166	217252	0
1651053513334	-810.568	485.072	63.928	119.77	145.67	-86.24	-430.5	-103.5	-943.5	0	0	0	0	0	0	0	0	0	0	0	0	0	0	0	0	0	0	180153	217256	0
1651053513344	-50.264	42.944	-1003.328	145.18	31.08	-75.46	-439.5	-99	-940.5	0	0	0	0	0	0	0	0	0	0	0	0	0	0	0	0	0	0	180231	217295	0
1651053513354	404.064	476.776	-633.424	125.86	80.08	-191.45	-451.5	-94.5	-936	0	0	0	0	0	0	0	0	0	0	0	0	0	0	0	0	0	0	180122	217174	0
1651053513364	507.52	488.976	87.84	60.69	121.24	-284.41	-465	-85.5	-937.5	0	0	0	0	0	0	0	0	0	0	0	0	0	0	0	0	0	0	180051	217076	0
1651053513374	-108.336	299.632	448.472	27.02	84.28	-228.55	-474	-67.5	-939	0	0	0	0	0	0	0	0	0	0	0	0	0	0	0	0	0	0	179968	216981	0
1651053513384	218.624	2.928	-420.656	-54.04	160.93	-307.02	-471	-55.5	-945	0	0	0	0	0	0	0	0	0	0	0	0	0	0	0	0	0	0	179929	216905	0
1651053513394	320.128	275.72	246.928	-182.91	182.77	-451.22	-465	-36	-957	0	0	0	0	0	0	0	0	0	0	0	0	0	0	0	0	0	0	179925	216875	0
1651053513404	269.376	178.12	252.296	-284.41	157.01	-524.72	-442.5	-6	-966	0	0	0	0	0	0	0	0	0	0	0	0	0	0	0	0	0	0	179934	216842	0
1651053513414	213.744	175.68	300.12	-275.1	107.59	-546.14	-405	24	-973.5	0	0	0	0	0	0	0	0	0	0	0	0	0	0	0	0	0	0	179941	216814	0
1651053513424	180.56	119.072	315.248	-266.28	65.1	-594.02	-372	52.5	-978	0	0	0	0	0	0	0	0	0	0	0	0	0	0	0	0	0	0	179869	216728	0
1651053513434	125.904	42.456	311.344	-237.58	18.9	-659.19	-342	70.5	-975	0	0	0	0	0	0	0	0	0	0	0	0	0	0	0	0	0	0	179730	216620	0
1651053513444	88.816	32.696	123.952	-134.12	-7.7	-696.64	-316.5	76.5	-960	0	0	0	0	0	0	0	0	0	0	0	0	0	0	0	0	0	0	179655	216554	0
1651053513454	-7656.232	6241.032	-954.528	25.55	218.12	-869.4	-310.5	87	-939	0	0	0	0	0	0	0	0	0	0	0	0	0	0	0	0	0	0	179584	216504	0
1651053513464	-1314.184	487.512	897.92	193.13	-165.06	-812.42	-330	120	-922.5	0	0	0	0	0	0	0	0	0	0	0	0	0	0	0	0	0	0	179535	216476	0
1651053513475	-148.352	-813.008	1036.024	120.12	30.94	-313.25	-367.5	156	-906	0	0	0	0	0	0	0	0	0	0	0	0	0	0	0	0	0	0	179461	216414	0
1651053513485	708.576	1116.056	150.792	-108.01	401.87	134.33	-399	175.5	-895.5	0	0	0	0	0	0	0	0	0	0	0	0	0	0	0	0	0	0	179395	216366	0
1651053513495	286.944	-430.416	284.504	-69.02	752.78	-41.3	-402	201	-858	0	0	0	0	0	0	0	0	0	0	0	0	0	0	0	0	0	0	179361	216338	0
1651053513505	-289.872	1425.936	1972.984	-748.09	1397.48	-499.66	-394.5	261	-807	0	0	0	0	0	0	0	0	0	0	0	0	0	0	0	0	0	0	179345	216337	0
1651053513515	-943.304	-2208.688	-1132.16	-387.45	1576.33	-1119.23	-340.5	388.5	-741	0	0	0	0	0	0	0	0	0	0	0	0	0	0	0	0	0	0	179353	216323	0
1651053513525	-1473.76	-4211.928	555.344	483.35	1562.68	-1020.88	-255	529.5	-628.5	0	0	0	0	0	0	0	0	0	0	0	0	0	0	0	0	0	0	179351	216305	0
1651053513535	-1257.088	-6631.92	4204.608	625.8	1630.23	-569.24	-205.5	621	-487.5	0	0	0	0	0	0	0	0	0	0	0	0	0	0	0	0	0	0	179327	216281	0
1651053513545	-1805.6	-6737.328	1799.744	-1171.45	1532.02	-393.12	-178.5	645	-346.5	0	0	0	0	0	0	0	0	0	0	0	0	0	0	0	0	0	0	179250	216210	0
1651053513555	-1186.328	-4084.072	2124.752	-1152.83	1147.16	75.11	-181.5	633	-229.5	0	0	0	0	0	0	0	0	0	0	0	0	0	0	0	0	0	0	179149	216151	0
1651053513565	-1503.04	-1728.008	284.992	10.43	487.55	380.1	-216	610.5	-157.5	0	0	0	0	0	0	0	0	0	0	0	0	0	0	0	0	0	0	179113	216119	0
1651053513575	-1516.216	-159.088	280.6	167.3	-279.44	258.02	-234	607.5	-147	0	0	0	0	0	0	0	0	0	0	0	0	0	0	0	0	0	0	179075	216083	0
1651053513585	-1892.952	1921.256	1193.648	604.03	-431.41	459.34	-249	627	-162	0	0	0	0	0	0	0	0	0	0	0	0	0	0	0	0	0	0	179051	216054	0
1651053513595	-12.2	-1513.776	845.216	248.71	-610.75	583.03	-279	640.5	-201	0	0	0	0	0	0	0	0	0	0	0	0	0	0	0	0	0	0	179071	216067	0
1651053513605	-218.136	-164.456	296.704	499.52	-671.37	222.88	-309	657	-264	0	0	0	0	0	0	0	0	0	0	0	0	0	0	0	0	0	0	179041	216011	0
1651053513615	-212.28	-391.864	83.448	778.05	-634.9	-58.94	-318	657	-316.5	0	0	0	0	0	0	0	0	0	0	0	0	0	0	0	0	0	0	178974	215929	0
1651053513625	-340.136	239.12	380.152	623	-504.14	-70.49	-309	661.5	-358.5	0	0	0	0	0	0	0	0	0	0	0	0	0	0	0	0	0	0	178966	215852	0
1651053513635	184.952	-320.616	-83.448	498.05	-328.16	-169.89	-301.5	675	-402	0	0	0	0	0	0	0	0	0	0	0	0	0	0	0	0	0	0	178953	215802	0
1651053513645	-210.328	-820.328	180.072	326.13	-72.94	-266.49	-279	678	-427.5	0	0	0	0	0	0	0	0	0	0	0	0	0	0	0	0	0	0	178920	215722	0
1651053513655	719.8	-1170.224	44.896	216.16	181.51	-339.15	-249	687	-427.5	0	0	0	0	0	0	0	0	0	0	0	0	0	0	0	0	0	0	178866	215654	0
1651053513665	-161.528	-1593.808	366.488	201.04	463.47	-328.65	-222	691.5	-409.5	0	0	0	0	0	0	0	0	0	0	0	0	0	0	0	0	0	0	178887	215596	0
1651053513675	-222.528	-1955.416	404.064	215.04	695.87	-259.84	-222	691.5	-363	0	0	0	0	0	0	0	0	0	0	0	0	0	0	0	0	0	0	178878	215539	0
1651053513685	-276.208	-1939.8	404.064	335.3	940.8	-138.25	-198	691.5	-363	0	0	0	0	0	0	0	0	0	0	0	0	0	0	0	0	0	0	178874	215506	0
1651053513695	-284.504	-1673.84	332.328	399.49	986.02	-88.2	-184.5	690	-304.5	0	0	0	0	0	0	0	0	0	0	0	0	0	0	0	0	0	0	178863	215465	0
1651053513705	-265.472	-1374.208	244.488	485.59	955.57	-61.74	-175.5	678	-225	0	0	0	0	0	0	0	0	0	0	0	0	0	0	0	0	0	0	178851	215456	0
1651053513715	-269.376	-994.056	223.504	524.23	868.42	-53.2	-175.5	654	-139.5	0	0	0	0	0	0	0	0	0	0	0	0	0	0	0	0	0	0	178826	215418	0
1651053513725	-248.392	-765.184	210.816	476.28	734.65	-29.54	-166.5	621	-64.5	0	0	0	0	0	0	0	0	0	0	0	0	0	0	0	0	0	0	178805	215371	0
1651053513735	-220.088	-689.544	158.112	444.36	583.94	17.01	-144	582	-3	0	0	0	0	0	0	0	0	0	0	0	0	0	0	0	0	0	0	178805	215356	0
1651053513745	-237.656	-753.96	197.64	417.97	411.25	68.81	-127.5	537	42	0	0	0	0	0	0	0	0	0	0	0	0	0	0	0	0	0	0	178813	215362	0
1651053513755	-237.168	-871.08	233.264	371.49	208.46	79.59	-112.5	510	63	0	0	0	0	0	0	0	0	0	0	0	0	0	0	0	0	0	0	178863	215360	0
1651053513765	-328.912	-1066.28	370.392	311.5	-29.33	14	-100.5	493.5	73.5	0	0	0	0	0	0	0	0	0	0	0	0	0	0	0	0	0	0	178868	215348	0
1651053513775	-295.24	-1364.448	333.792	287.07	-229.39	45.92	-91.5	481.5	75	0	0	0	0	0	0	0	0	0	0	0	0	0	0	0	0	0	0	178663	215255	0
1651053513785	-247.904	-1983.72	388.448	331.1	-456.75	90.09	-84	495	52.5	0	0	0	0	0	0	0	0	0	0	0	0	0	0	0	0	0	0	179585	216435	0
1651053513795	-227.896	-2053.016	410.896	356.09	-542.5	124.46	-82.5	522	15	0	0	0	0	0	0	0	0	0	0	0	0	0	0	0	0	0	0	182758	220985	0
1651053513805	-197.152	-1827.072	329.4	373.24	-573.86	136.5	-79.5	550.5	-33	0	0	0	0	0	0	0	0	0	0	0	0	0	0	0	0	0	0	188129	227760	0
1651053513815	-118.096	-1442.04	355.264	386.47	-555.52	130.2	-84	585	-82.5	0	0	0	0	0	0	0	0	0	0	0	0	0	0	0	0	0	0	190170	229384	0
1651053513825	-462.624	-1383.48	118.096	607.04	-573.51	-225.33	-96	612	-138	0	0	0	0	0	0	0	0	0	0	0	0	0	0	0	0	0	0	190005	228445	0
1651053513835	565.104	-1344.44	103.944	841.05	-453.46	-357.07	-99	627	-193.5	0	0	0	0	0	0	0	0	0	0	0	0	0	0	0	0	0	0	189210	226815	0
