Timestamp	Acc.X	Acc.Y	Acc.Z	Gyro.X	Gyro.Y	Gyro.Z	Magn.X	Magn.Y	Magn.Z	Distance.x	Distance.y	P.0	P.1	P.2	P.3	P.4	P.5	P.6	P.7	P.8	P.9	P.10	P.11	P.12	P.13	P.14	P.15	PPG_RED.	PPG_IR.	PPG_GREEN.
1651053504016	122.488	1009.672	265.472	-4.48	0.42	0	-141	-480	-430.5	0	0	0	0	0	0	0	0	0	0	0	0	0	0	0	0	0	0	1154	1346	0
1651053504026	111.752	937.936	272.304	2.87	1.19	45.29	-340.5	-235.5	-612	0	0	0	0	0	0	0	0	0	0	0	0	0	0	0	0	0	0	1165	1347	0
1651053504036	83.936	863.272	325.984	19.95	14.49	89.67	-336	-240	-613.5	0	0	0	0	0	0	0	0	0	0	0	0	0	0	0	0	0	0	1151	1347	0
1651053504046	138.104	797.392	491.416	3.36	36.82	140.91	-333	-243	-607.5	0	0	0	0	0	0	0	0	0	0	0	0	0	0	0	0	0	0	1147	1351	0
1651053504056	224.48	787.144	676.368	-10.43	50.33	156.24	-319.5	-244.5	-612	0	0	0	0	0	0	0	0	0	0	0	0	0	0	0	0	0	0	1141	1347	0
1651053504066	300.12	761.768	777.384	-15.89	53.06	166.67	-306	-243	-613.5	0	0	0	0	0	0	0	0	0	0	0	0	0	0	0	0	0	0	1158	1357	0
1651053504076	343.064	705.16	766.16	-16.03	52.57	175.84	-294	-246	-618	0	0	0	0	0	0	0	0	0	0	0	0	0	0	0	0	0	0	1149	1360	0
1651053504086	418.704	600.728	780.312	-29.4	56.35	182.14	-286.5	-250.5	-625.5	0	0	0	0	0	0	0	0	0	0	0	0	0	0	0	0	0	0	1157	1355	0
1651053504096	500.688	487.024	772.992	-39.69	55.72	177.87	-271.5	-252	-621	0	0	0	0	0	0	0	0	0	0	0	0	0	0	0	0	0	0	1155	1351	0
1651053504106	830.576	679.296	478.728	-13.16	29.12	111.37	-256.5	-247.5	-619.5	0	0	0	0	0	0	0	0	0	0	0	0	0	0	0	0	0	0	1172	1357	0
1651053504116	565.592	315.736	816.912	-28.91	41.93	139.79	-247.5	-249	-627	0	0	0	0	0	0	0	0	0	0	0	0	0	0	0	0	0	0	1165	1360	0
1651053504126	661.24	301.096	694.424	-18.55	44.24	147.42	-235.5	-255	-628.5	0	0	0	0	0	0	0	0	0	0	0	0	0	0	0	0	0	0	1161	1358	0
1651053504136	665.632	345.016	681.248	-20.16	44.1	129.92	-220.5	-256.5	-630	0	0	0	0	0	0	0	0	0	0	0	0	0	0	0	0	0	0	1161	1353	0
1651053504146	671.488	377.712	677.344	-21.42	42.91	113.05	-210	-255	-631.5	0	0	0	0	0	0	0	0	0	0	0	0	0	0	0	0	0	0	1176	1353	0
1651053504156	619.76	428.464	649.528	-19.25	38.92	111.44	-204	-252	-636	0	0	0	0	0	0	0	0	0	0	0	0	0	0	0	0	0	0	1164	1358	0
1651053504166	631.472	477.752	690.52	-24.43	39.06	114.1	-196.5	-252	-643.5	0	0	0	0	0	0	0	0	0	0	0	0	0	0	0	0	0	0	1166	1348	0
1651053504176	630.496	475.312	752.496	-31.43	45.71	114.31	-190.5	-253.5	-646.5	0	0	0	0	0	0	0	0	0	0	0	0	0	0	0	0	0	0	1160	1354	0
1651053504186	674.904	443.104	812.52	-23.1	40.6	109.62	-180	-250.5	-643.5	0	0	0	0	0	0	0	0	0	0	0	0	0	0	0	0	0	0	1165	1356	0
1651053504196	701.744	367.464	814.472	-10.29	32.27	109.48	-172.5	-250.5	-651	0	0	0	0	0	0	0	0	0	0	0	0	0	0	0	0	0	0	1157	1351	0
1651053504206	713.944	313.296	837.896	6.44	25.34	107.94	-168	-250.5	-654	0	0	0	0	0	0	0	0	0	0	0	0	0	0	0	0	0	0	1159	1346	0
1651053504216	704.672	303.048	744.688	17.5	19.81	109.34	-156	-250.5	-652.5	0	0	0	0	0	0	0	0	0	0	0	0	0	0	0	0	0	0	1165	1344	0
1651053504226	691.984	295.24	730.048	16.45	20.02	116.06	-142.5	-246	-648	0	0	0	0	0	0	0	0	0	0	0	0	0	0	0	0	0	0	1183	1341	0
1651053504236	700.768	284.016	805.2	14.98	14.21	123.62	-141	-246	-646.5	0	0	0	0	0	0	0	0	0	0	0	0	0	0	0	0	0	0	1157	1347	0
1651053504246	666.12	341.6	756.4	20.37	8.12	131.6	-133.5	-249	-649.5	0	0	0	0	0	0	0	0	0	0	0	0	0	0	0	0	0	0	1160	1344	0
1651053504256	638.304	306.464	769.576	30.24	9.87	137.2	-123	-249	-655.5	0	0	0	0	0	0	0	0	0	0	0	0	0	0	0	0	0	0	1165	1346	0
1651053504266	472.872	264.008	805.688	46.2	12.18	141.54	-118.5	-247.5	-651	0	0	0	0	0	0	0	0	0	0	0	0	0	0	0	0	0	0	1183	1346	0
1651053504276	678.808	344.04	772.504	46.48	25.06	145.6	-112.5	-243	-651	0	0	0	0	0	0	0	0	0	0	0	0	0	0	0	0	0	0	1156	1349	0
1651053504286	698.816	399.184	803.736	48.93	26.11	140.35	-108	-237	-654	0	0	0	0	0	0	0	0	0	0	0	0	0	0	0	0	0	0	1163	1353	0
1651053504296	635.376	295.728	802.76	35.14	31.22	140.49	-99	-234	-660	0	0	0	0	0	0	0	0	0	0	0	0	0	0	0	0	0	0	1160	1356	0
1651053504306	661.728	296.216	824.232	12.04	45.36	142.31	-88.5	-234	-660	0	0	0	0	0	0	0	0	0	0	0	0	0	0	0	0	0	0	1177	1356	0
1651053504316	720.776	283.528	869.616	-6.86	46.27	133.98	-82.5	-237	-661.5	0	0	0	0	0	0	0	0	0	0	0	0	0	0	0	0	0	0	1167	1362	0
1651053504326	699.304	276.696	821.792	-21.07	40.88	121.66	-76.5	-225	-664.5	0	0	0	0	0	0	0	0	0	0	0	0	0	0	0	0	0	0	1164	1374	0
1651053504336	651.968	263.032	844.728	-29.54	40.81	114.94	-67.5	-219	-667.5	0	0	0	0	0	0	0	0	0	0	0	0	0	0	0	0	0	0	1165	1370	0
1651053504346	708.576	282.064	834.48	-22.05	45.5	107.38	-52.5	-223.5	-672	0	0	0	0	0	0	0	0	0	0	0	0	0	0	0	0	0	0	1180	1373	0
1651053504356	667.096	244.488	807.64	-7.35	44.1	101.5	-42	-217.5	-669	0	0	0	0	0	0	0	0	0	0	0	0	0	0	0	0	0	0	1168	1386	0
1651053504366	659.288	204.472	799.832	2.52	43.05	101.43	-39	-207	-670.5	0	0	0	0	0	0	0	0	0	0	0	0	0	0	0	0	0	0	1164	1387	0
1651053504376	671.488	205.936	756.888	7.42	36.54	102.06	-37.5	-208.5	-679.5	0	0	0	0	0	0	0	0	0	0	0	0	0	0	0	0	0	0	1159	1399	0
1651053504386	656.36	242.048	727.12	13.02	23.66	103.18	-27	-208.5	-684	0	0	0	0	0	0	0	0	0	0	0	0	0	0	0	0	0	0	1179	1412	0
1651053504396	616.832	223.504	798.856	14.14	15.19	109.27	-18	-204	-681	0	0	0	0	0	0	0	0	0	0	0	0	0	0	0	0	0	0	1173	1409	0
1651053504406	623.176	180.56	813.984	6.51	19.18	108.92	-16.5	-201	-685.5	0	0	0	0	0	0	0	0	0	0	0	0	0	0	0	0	0	0	1165	1420	0
1651053504416	654.896	155.672	835.944	1.96	20.16	101.92	-7.5	-196.5	-684	0	0	0	0	0	0	0	0	0	0	0	0	0	0	0	0	0	0	1165	1429	0
1651053504426	667.584	131.76	839.36	5.81	14.49	92.33	6	-192	-684	0	0	0	0	0	0	0	0	0	0	0	0	0	0	0	0	0	0	1165	1472	0
1651053504436	664.656	109.8	819.84	7.42	12.11	80.36	6	-187.5	-687	0	0	0	0	0	0	0	0	0	0	0	0	0	0	0	0	0	0	1215	1514	0
1651053504446	657.336	105.896	831.552	8.19	7.56	69.16	6	-189	-687	0	0	0	0	0	0	0	0	0	0	0	0	0	0	0	0	0	0	1211	1517	0
1651053504456	634.888	93.208	811.544	14.07	-1.4	61.74	15	-187.5	-691.5	0	0	0	0	0	0	0	0	0	0	0	0	0	0	0	0	0	0	1224	1536	0
1651053504466	603.656	88.816	788.12	14.21	-1.54	54.18	21	-181.5	-690	0	0	0	0	0	0	0	0	0	0	0	0	0	0	0	0	0	0	1250	1557	0
1651053504476	602.192	140.544	777.384	15.82	-0.14	49	27	-183	-691.5	0	0	0	0	0	0	0	0	0	0	0	0	0	0	0	0	0	0	1250	1594	0
1651053504486	573.4	166.896	798.368	21	-6.16	50.68	24	-180	-696	0	0	0	0	0	0	0	0	0	0	0	0	0	0	0	0	0	0	1263	1619	0
1651053504496	582.672	112.728	894.992	28.42	-7.14	53.34	24	-181.5	-691.5	0	0	0	0	0	0	0	0	0	0	0	0	0	0	0	0	0	0	1268	1642	0
1651053504506	621.224	140.056	981.368	41.23	-17.36	52.36	25.5	-180	-691.5	0	0	0	0	0	0	0	0	0	0	0	0	0	0	0	0	0	0	1274	1655	0
1651053504516	637.816	131.272	953.552	46.2	-28.91	49.98	27	-178.5	-694.5	0	0	0	0	0	0	0	0	0	0	0	0	0	0	0	0	0	0	1283	1655	0
1651053504526	650.504	130.296	882.792	32.83	-44.52	43.12	28.5	-183	-691.5	0	0	0	0	0	0	0	0	0	0	0	0	0	0	0	0	0	0	1286	1645	0
1651053504536	632.448	101.504	865.224	9.52	-56.98	29.68	34.5	-186	-690	0	0	0	0	0	0	0	0	0	0	0	0	0	0	0	0	0	0	1286	1621	0
1651053504546	620.736	103.456	843.752	-12.81	-60.69	17.57	34.5	-184.5	-682.5	0	0	0	0	0	0	0	0	0	0	0	0	0	0	0	0	0	0	1276	1590	0
1651053504556	629.032	102.968	827.648	-24.99	-64.47	10.64	34.5	-187.5	-684	0	0	0	0	0	0	0	0	0	0	0	0	0	0	0	0	0	0	1260	1572	0
1651053504566	644.16	90.28	820.328	-23.03	-70.35	6.51	40.5	-187.5	-685.5	0	0	0	0	0	0	0	0	0	0	0	0	0	0	0	0	0	0	1245	1527	0
1651053504576	650.992	87.352	807.64	-19.6	-70.7	3.99	39	-184.5	-678	0	0	0	0	0	0	0	0	0	0	0	0	0	0	0	0	0	0	1235	1474	0
1651053504586	688.568	68.808	802.272	-19.11	-68.67	-0.07	40.5	-190.5	-670.5	0	0	0	0	0	0	0	0	0	0	0	0	0	0	0	0	0	0	1213	1426	0
1651053504596	724.192	44.896	845.704	-9.24	-69.72	-8.47	42	-196.5	-669	0	0	0	0	0	0	0	0	0	0	0	0	0	0	0	0	0	0	1208	1395	0
1651053504606	744.2	66.368	846.68	-1.82	-69.51	-17.08	42	-201	-667.5	0	0	0	0	0	0	0	0	0	0	0	0	0	0	0	0	0	0	1194	1363	0
1651053504616	777.872	90.768	821.792	3.92	-71.05	-27.09	43.5	-208.5	-663	0	0	0	0	0	0	0	0	0	0	0	0	0	0	0	0	0	0	1185	1326	0
1651053504626	781.288	82.96	756.4	3.01	-72.8	-32.97	48	-213	-657	0	0	0	0	0	0	0	0	0	0	0	0	0	0	0	0	0	0	1169	1297	0
1651053504636	792.512	94.672	742.736	-8.05	-71.68	-34.3	46.5	-216	-655.5	0	0	0	0	0	0	0	0	0	0	0	0	0	0	0	0	0	0	1166	1259	0
1651053504646	835.944	113.704	710.04	-17.15	-72.31	-36.82	39	-223.5	-652.5	0	0	0	0	0	0	0	0	0	0	0	0	0	0	0	0	0	0	1153	1243	0
1651053504656	816.424	87.84	645.136	-18.27	-73.22	-39.34	42	-226.5	-648	0	0	0	0	0	0	0	0	0	0	0	0	0	0	0	0	0	0	1153	1233	0
1651053504666	802.272	95.648	616.832	-6.93	-73.85	-39.48	45	-225	-642	0	0	0	0	0	0	0	0	0	0	0	0	0	0	0	0	0	0	1156	1239	0
1651053504676	820.816	142.008	584.136	19.46	-75.6	-42.49	42	-232.5	-637.5	0	0	0	0	0	0	0	0	0	0	0	0	0	0	0	0	0	0	1167	1234	0
1651053504686	857.416	165.432	565.104	31.71	-70.28	-47.74	40.5	-240	-637.5	0	0	0	0	0	0	0	0	0	0	0	0	0	0	0	0	0	0	1170	1248	0
1651053504696	944.28	110.776	637.816	29.68	-66.99	-59.78	37.5	-246	-633	0	0	0	0	0	0	0	0	0	0	0	0	0	0	0	0	0	0	1160	1233	0
1651053504706	944.28	40.504	642.696	28.77	-69.3	-72.17	31.5	-250.5	-625.5	0	0	0	0	0	0	0	0	0	0	0	0	0	0	0	0	0	0	1169	1215	0
1651053504716	955.016	-18.544	677.832	30.17	-73.29	-88.41	24	-252	-621	0	0	0	0	0	0	0	0	0	0	0	0	0	0	0	0	0	0	1156	1215	0
1651053504726	947.696	-27.816	658.312	33.46	-73.71	-104.58	15	-255	-618	0	0	0	0	0	0	0	0	0	0	0	0	0	0	0	0	0	0	1163	1184	0
1651053504736	962.336	37.088	648.064	33.88	-75.95	-121.17	3	-265.5	-615	0	0	0	0	0	0	0	0	0	0	0	0	0	0	0	0	0	0	1161	1201	0
1651053504746	957.944	82.472	620.736	34.3	-75.32	-133.07	-4.5	-276	-607.5	0	0	0	0	0	0	0	0	0	0	0	0	0	0	0	0	0	0	1149	1187	0
1651053504756	1016.016	82.96	640.744	27.79	-66.92	-133	-9	-274.5	-601.5	0	0	0	0	0	0	0	0	0	0	0	0	0	0	0	0	0	0	1148	1183	0
1651053504766	966.728	140.056	582.672	25.9	-66.01	-139.51	-22.5	-280.5	-600	0	0	0	0	0	0	0	0	0	0	0	0	0	0	0	0	0	0	1156	1172	0
1651053504776	973.56	199.592	542.168	47.81	-87.08	-153.16	-37.5	-286.5	-600	0	0	0	0	0	0	0	0	0	0	0	0	0	0	0	0	0	0	1154	1170	0
1651053504786	938.424	210.328	551.44	47.18	-94.15	-161.35	-46.5	-291	-594	0	0	0	0	0	0	0	0	0	0	0	0	0	0	0	0	0	0	1158	1198	0
1651053504796	966.24	203.984	555.832	37.87	-105.77	-159.67	-55.5	-295.5	-588	0	0	0	0	0	0	0	0	0	0	0	0	0	0	0	0	0	0	1145	1326	0
1651053504806	913.048	148.84	501.664	32.48	-116.62	-164.99	-70.5	-300	-583.5	0	0	0	0	0	0	0	0	0	0	0	0	0	0	0	0	0	0	1149	1569	0
1651053504816	860.832	63.928	469.456	35.91	-127.54	-177.8	-81	-300	-574.5	0	0	0	0	0	0	0	0	0	0	0	0	0	0	0	0	0	0	1187	1721	0
1651053504826	784.704	136.152	429.928	53.76	-148.12	-190.61	-93	-306	-564	0	0	0	0	0	0	0	0	0	0	0	0	0	0	0	0	0	0	1214	1781	0
1651053504836	707.112	356.728	348.432	68.53	-164.71	-193.97	-111	-307.5	-552	0	0	0	0	0	0	0	0	0	0	0	0	0	0	0	0	0	0	1209	1935	0
1651053504846	668.072	469.456	301.584	67.13	-158.83	-194.04	-132	-315	-538.5	0	0	0	0	0	0	0	0	0	0	0	0	0	0	0	0	0	0	1179	2087	0
1651053504857	618.296	471.408	282.064	70.35	-158.76	-190.75	-150	-325.5	-528	0	0	0	0	0	0	0	0	0	0	0	0	0	0	0	0	0	0	1157	2239	0
1651053504867	616.832	510.936	319.152	75.18	-161.63	-183.12	-165	-322.5	-516	0	0	0	0	0	0	0	0	0	0	0	0	0	0	0	0	0	0	1161	2303	0
1651053504877	660.264	553.88	363.56	72.38	-163.1	-176.19	-184.5	-322.5	-504	0	0	0	0	0	0	0	0	0	0	0	0	0	0	0	0	0	0	1162	1999	0
1651053504887	681.248	487.024	413.336	54.18	-162.61	-174.79	-196.5	-330	-489	0	0	0	0	0	0	0	0	0	0	0	0	0	0	0	0	0	0	1123	1384	0
1651053504897	705.16	347.944	540.704	32.83	-168.42	-178.85	-210	-334.5	-475.5	0	0	0	0	0	0	0	0	0	0	0	0	0	0	0	0	0	0	1127	1086	0
1651053504907	642.208	212.768	475.8	11.2	-180.39	-191.94	-225	-331.5	-460.5	0	0	0	0	0	0	0	0	0	0	0	0	0	0	0	0	0	0	1109	1052	0
1651053504917	520.696	178.12	380.64	18.34	-202.16	-201.74	-240	-322.5	-445.5	0	0	0	0	0	0	0	0	0	0	0	0	0	0	0	0	0	0	1106	1039	0
1651053504927	364.048	244	303.536	36.47	-233.17	-212.45	-258	-318	-429	0	0	0	0	0	0	0	0	0	0	0	0	0	0	0	0	0	0	1096	1028	0
1651053504937	276.208	450.912	246.44	49.56	-249.55	-225.33	-273	-319.5	-409.5	0	0	0	0	0	0	0	0	0	0	0	0	0	0	0	0	0	0	1092	1013	0
1651053504947	288.896	719.8	120.536	59.64	-258.86	-231.49	-292.5	-312	-385.5	0	0	0	0	0	0	0	0	0	0	0	0	0	0	0	0	0	0	1091	1017	0
1651053504957	309.88	928.176	19.032	104.3	-275.17	-254.1	-313.5	-310.5	-360	0	0	0	0	0	0	0	0	0	0	0	0	0	0	0	0	0	0	1081	1005	0
1651053504967	210.816	1018.944	-80.52	133.84	-282.24	-250.81	-331.5	-301.5	-337.5	0	0	0	0	0	0	0	0	0	0	0	0	0	0	0	0	0	0	1083	999	0
1651053504977	207.4	1009.184	-69.296	137.69	-270.27	-238.42	-349.5	-280.5	-313.5	0	0	0	0	0	0	0	0	0	0	0	0	0	0	0	0	0	0	1073	998	0
1651053504987	272.792	961.36	-37.088	119.35	-233.66	-222.46	-366	-273	-291	0	0	0	0	0	0	0	0	0	0	0	0	0	0	0	0	0	0	1074	974	0
1651053504997	335.744	771.04	46.848	84	-207.48	-214.48	-378	-264	-265.5	0	0	0	0	0	0	0	0	0	0	0	0	0	0	0	0	0	0	1074	974	0
1651053505007	314.76	621.224	206.912	49.42	-221.83	-206.43	-390	-246	-247.5	0	0	0	0	0	0	0	0	0	0	0	0	0	0	0	0	0	0	1066	961	0
1651053505017	203.984	569.984	213.256	39.69	-233.52	-205.24	-402	-231	-228	0	0	0	0	0	0	0	0	0	0	0	0	0	0	0	0	0	0	1065	964	0
1651053505027	49.776	641.232	110.288	48.72	-252.49	-202.02	-415.5	-213	-208.5	0	0	0	0	0	0	0	0	0	0	0	0	0	0	0	0	0	0	1061	961	0
1651053505037	-139.08	736.392	-158.6	92.26	-259.07	-193.69	-429	-195	-193.5	0	0	0	0	0	0	0	0	0	0	0	0	0	0	0	0	0	0	1058	953	0
1651053505047	-267.912	945.744	-387.96	167.93	-255.01	-185.92	-438	-175.5	-175.5	0	0	0	0	0	0	0	0	0	0	0	0	0	0	0	0	0	0	1047	951	0
1651053505057	-250.344	1172.664	-537.288	237.51	-220.92	-166.81	-442.5	-157.5	-151.5	0	0	0	0	0	0	0	0	0	0	0	0	0	0	0	0	0	0	1046	939	0
1651053505067	-107.36	1222.44	-573.4	270.55	-172.06	-153.86	-441	-135	-129	0	0	0	0	0	0	0	0	0	0	0	0	0	0	0	0	0	0	1049	944	0
1651053505077	9.76	1117.52	-546.56	276.22	-147.98	-139.3	-432	-115.5	-106.5	0	0	0	0	0	0	0	0	0	0	0	0	0	0	0	0	0	0	1054	948	0
1651053505087	145.912	997.472	-323.056	251.86	-178.5	-122.64	-420	-96	-79.5	0	0	0	0	0	0	0	0	0	0	0	0	0	0	0	0	0	0	1059	934	0
1651053505097	128.832	852.048	-47.336	248.01	-213.85	-111.58	-415.5	-90	-60	0	0	0	0	0	0	0	0	0	0	0	0	0	0	0	0	0	0	1049	926	0
1651053505107	17.568	646.6	79.544	260.19	-217.91	-107.94	-411	-78	-42	0	0	0	0	0	0	0	0	0	0	0	0	0	0	0	0	0	0	1050	922	0
1651053505117	-82.472	558.76	-134.2	244.23	-194.81	-108.71	-397.5	-55.5	-19.5	0	0	0	0	0	0	0	0	0	0	0	0	0	0	0	0	0	0	1047	916	0
1651053505127	-161.04	542.168	-428.952	196.35	-199.15	-103.6	-388.5	-39	3	0	0	0	0	0	0	0	0	0	0	0	0	0	0	0	0	0	0	1046	917	0
1651053505137	-264.008	606.584	-670.512	131.88	-239.4	-93.45	-381	-16.5	18	0	0	0	0	0	0	0	0	0	0	0	0	0	0	0	0	0	0	1035	915	0
1651053505147	-253.272	795.928	-780.312	77.49	-252.21	-93.66	-375	7.5	25.5	0	0	0	0	0	0	0	0	0	0	0	0	0	0	0	0	0	0	1031	913	0
1651053505157	-313.784	884.744	-858.392	38.99	-227.15	-102.97	-369	22.5	37.5	0	0	0	0	0	0	0	0	0	0	0	0	0	0	0	0	0	0	1033	906	0
1651053505167	-253.272	878.4	-767.624	12.67	-188.23	-107.87	-369	43.5	49.5	0	0	0	0	0	0	0	0	0	0	0	0	0	0	0	0	0	0	1039	904	0
1651053505177	-252.296	697.84	-572.424	23.66	-175.14	-107.38	-367.5	60	49.5	0	0	0	0	0	0	0	0	0	0	0	0	0	0	0	0	0	0	1044	914	0
1651053505187	-236.192	562.664	-328.912	73.5	-196.63	-99.54	-367.5	75	49.5	0	0	0	0	0	0	0	0	0	0	0	0	0	0	0	0	0	0	1039	911	0
1651053505197	-322.568	441.64	-224.968	132.58	-216.79	-95.27	-363	97.5	57	0	0	0	0	0	0	0	0	0	0	0	0	0	0	0	0	0	0	1043	900	0
1651053505207	-347.456	279.624	-193.736	177.59	-258.51	-79.94	-348	118.5	67.5	0	0	0	0	0	0	0	0	0	0	0	0	0	0	0	0	0	0	1032	892	0
1651053505217	-555.344	218.136	-236.68	190.82	-279.72	-80.43	-334.5	142.5	78	0	0	0	0	0	0	0	0	0	0	0	0	0	0	0	0	0	0	1025	885	0
1651053505227	-561.2	347.944	-442.616	178.15	-281.26	-81.76	-321	165	84	0	0	0	0	0	0	0	0	0	0	0	0	0	0	0	0	0	0	1028	884	0
1651053505237	-538.752	529.968	-722.24	83.23	-242.27	-86.24	-321	165	84	0	0	0	0	0	0	0	0	0	0	0	0	0	0	0	0	0	0	1022	874	0
1651053505247	-566.568	569.008	-717.848	-19.74	-202.09	-88.9	-306	187.5	87	0	0	0	0	0	0	0	0	0	0	0	0	0	0	0	0	0	0	1020	865	0
1651053505257	-589.992	540.216	-574.864	-47.74	-193.55	-89.53	-303	210	90	0	0	0	0	0	0	0	0	0	0	0	0	0	0	0	0	0	0	1025	869	0
1651053505267	-598.288	495.808	-429.928	-35.98	-198.87	-86.45	-309	231	93	0	0	0	0	0	0	0	0	0	0	0	0	0	0	0	0	0	0	1029	860	0
1651053505277	-697.352	451.4	-335.744	-18.55	-202.93	-100.1	-312	252	82.5	0	0	0	0	0	0	0	0	0	0	0	0	0	0	0	0	0	0	1015	855	0
1651053505287	-775.92	431.392	-218.624	0.42	-214.62	-125.09	-310.5	273	72	0	0	0	0	0	0	0	0	0	0	0	0	0	0	0	0	0	0	1015	856	0
1651053505297	-721.264	429.44	-98.576	26.11	-212.24	-154.56	-309	291	73.5	0	0	0	0	0	0	0	0	0	0	0	0	0	0	0	0	0	0	1019	857	0
1651053505307	-738.832	395.768	-173.728	43.82	-216.02	-178.92	-303	309	70.5	0	0	0	0	0	0	0	0	0	0	0	0	0	0	0	0	0	0	1018	859	0
1651053505317	-767.624	569.496	-311.344	51.45	-221.27	-170.03	-297	328.5	63	0	0	0	0	0	0	0	0	0	0	0	0	0	0	0	0	0	0	1015	854	0
1651053505327	-687.592	640.256	-553.392	43.68	-216.72	-140.07	-294	351	58.5	0	0	0	0	0	0	0	0	0	0	0	0	0	0	0	0	0	0	1015	852	0
1651053505337	-804.712	526.064	-497.76	13.65	-208.81	-107.45	-282	376.5	54	0	0	0	0	0	0	0	0	0	0	0	0	0	0	0	0	0	0	1013	852	0
1651053505347	-768.112	576.328	-309.88	-5.6	-192.85	-62.16	-271.5	396	46.5	0	0	0	0	0	0	0	0	0	0	0	0	0	0	0	0	0	0	1016	849	0
1651053505357	-804.712	563.64	-207.4	-18.2	-170.1	-50.75	-265.5	412.5	42	0	0	0	0	0	0	0	0	0	0	0	0	0	0	0	0	0	0	1015	844	0
1651053505367	-929.152	498.736	-160.552	-11.41	-161.42	-64.47	-264	424.5	39	0	0	0	0	0	0	0	0	0	0	0	0	0	0	0	0	0	0	1014	858	0
1651053505377	-1010.648	455.304	-140.544	-9.94	-147.14	-94.71	-264	438	31.5	0	0	0	0	0	0	0	0	0	0	0	0	0	0	0	0	0	0	1017	853	0
1651053505387	-1019.92	366	-120.536	-21.91	-138.11	-123.55	-262.5	453	19.5	0	0	0	0	0	0	0	0	0	0	0	0	0	0	0	0	0	0	1018	860	0
1651053505397	-1048.712	329.888	-80.032	-13.51	-153.44	-140.84	-255	463.5	6	0	0	0	0	0	0	0	0	0	0	0	0	0	0	0	0	0	0	1034	869	0
1651053505407	-907.68	427.976	-2.928	6.16	-181.79	-144.06	-247.5	477	-1.5	0	0	0	0	0	0	0	0	0	0	0	0	0	0	0	0	0	0	1034	873	0
1651053505417	-854.488	609.512	-81.008	1.26	-206.43	-115.78	-244.5	493.5	-9	0	0	0	0	0	0	0	0	0	0	0	0	0	0	0	0	0	0	1033	872	0
1651053505427	-954.04	667.096	-37.576	-16.66	-185.08	-80.57	-235.5	502.5	-15	0	0	0	0	0	0	0	0	0	0	0	0	0	0	0	0	0	0	1027	867	0
1651053505437	-1053.592	676.856	-73.2	-17.71	-136.78	-39.62	-231	519	-24	0	0	0	0	0	0	0	0	0	0	0	0	0	0	0	0	0	0	1019	860	0
1651053505447	-1050.176	663.192	-192.76	-18.06	-103.11	-12.25	-223.5	532.5	-34.5	0	0	0	0	0	0	0	0	0	0	0	0	0	0	0	0	0	0	1023	861	0
1651053505457	-1208.288	448.472	-122	-19.88	-89.18	-11.62	-220.5	541.5	-45	0	0	0	0	0	0	0	0	0	0	0	0	0	0	0	0	0	0	1017	850	0
1651053505467	-1287.344	301.584	2.928	-1.19	-93.03	-21.98	-220.5	546	-54	0	0	0	0	0	0	0	0	0	0	0	0	0	0	0	0	0	0	1013	855	0
1651053505477	-1286.368	293.288	0.976	8.54	-84.7	-46.55	-220.5	547.5	-58.5	0	0	0	0	0	0	0	0	0	0	0	0	0	0	0	0	0	0	1019	851	0
1651053505487	-1280.024	297.68	-10.248	20.72	-79.87	-68.81	-220.5	553.5	-63	0	0	0	0	0	0	0	0	0	0	0	0	0	0	0	0	0	0	1021	847	0
1651053505497	-1151.192	406.016	-6.344	44.1	-89.46	-80.5	-213	559.5	-67.5	0	0	0	0	0	0	0	0	0	0	0	0	0	0	0	0	0	0	1024	851	0
1651053505507	-1029.68	552.416	-74.664	60.27	-96.04	-79.66	-205.5	562.5	-75	0	0	0	0	0	0	0	0	0	0	0	0	0	0	0	0	0	0	1017	848	0
1651053505517	-937.448	510.936	55.144	56.21	-109.55	-51.87	-195	570	-76.5	0	0	0	0	0	0	0	0	0	0	0	0	0	0	0	0	0	0	1017	845	0
1651053505527	-987.224	494.832	15.128	22.05	-67.27	-23.03	-180	580.5	-82.5	0	0	0	0	0	0	0	0	0	0	0	0	0	0	0	0	0	0	1019	840	0
1651053505537	-1081.896	266.448	25.376	8.05	-46.83	2.45	-181.5	585	-91.5	0	0	0	0	0	0	0	0	0	0	0	0	0	0	0	0	0	0	1019	844	0
1651053505547	-1030.168	297.68	43.92	30.17	-72.87	22.61	-183	586.5	-94.5	0	0	0	0	0	0	0	0	0	0	0	0	0	0	0	0	0	0	1020	852	0
1651053505557	-949.16	390.888	83.448	40.25	-86.24	25.97	-172.5	588	-96	0	0	0	0	0	0	0	0	0	0	0	0	0	0	0	0	0	0	1023	836	0
1651053505567	-959.408	417.728	17.568	64.47	-97.86	24.22	-169.5	591	-99	0	0	0	0	0	0	0	0	0	0	0	0	0	0	0	0	0	0	1022	843	0
1651053505577	-904.752	473.848	11.224	87.78	-112.35	23.73	-172.5	589.5	-103.5	0	0	0	0	0	0	0	0	0	0	0	0	0	0	0	0	0	0	1019	848	0
1651053505587	-831.064	514.352	56.608	86.17	-107.52	24.64	-177	595.5	-115.5	0	0	0	0	0	0	0	0	0	0	0	0	0	0	0	0	0	0	1019	854	0
1651053505597	-748.104	543.632	69.296	56.98	-83.37	24.15	-172.5	601.5	-121.5	0	0	0	0	0	0	0	0	0	0	0	0	0	0	0	0	0	0	1026	863	0
1651053505607	-811.056	440.176	130.784	21	-62.65	20.58	-172.5	603	-130.5	0	0	0	0	0	0	0	0	0	0	0	0	0	0	0	0	0	0	1027	854	0
1651053505617	-887.672	326.96	164.456	16.45	-94.15	24.15	-171	609	-138	0	0	0	0	0	0	0	0	0	0	0	0	0	0	0	0	0	0	1027	849	0
1651053505627	-1044.32	262.544	192.272	18.2	-113.54	31.5	-166.5	616.5	-139.5	0	0	0	0	0	0	0	0	0	0	0	0	0	0	0	0	0	0	1007	851	0
1651053505637	-1043.344	258.64	243.024	37.8	-135.45	47.46	-168	621	-145.5	0	0	0	0	0	0	0	0	0	0	0	0	0	0	0	0	0	0	1024	847	0
1651053505647	-1033.584	376.248	244.488	54.11	-128.73	58.73	-169.5	625.5	-156	0	0	0	0	0	0	0	0	0	0	0	0	0	0	0	0	0	0	1022	849	0
1651053505657	-993.568	446.032	160.064	58.59	-100.8	64.19	-175.5	634.5	-160.5	0	0	0	0	0	0	0	0	0	0	0	0	0	0	0	0	0	0	1029	849	0
1651053505667	-899.384	563.152	132.736	29.4	-57.54	65.59	-180	634.5	-174	0	0	0	0	0	0	0	0	0	0	0	0	0	0	0	0	0	0	1035	850	0
1651053505677	-1028.216	541.68	76.128	35.77	-45.85	58.1	-181.5	630	-186	0	0	0	0	0	0	0	0	0	0	0	0	0	0	0	0	0	0	1028	849	0
1651053505687	-976.976	565.592	103.944	37.03	-28.98	59.71	-187.5	634.5	-186	0	0	0	0	0	0	0	0	0	0	0	0	0	0	0	0	0	0	1017	842	0
1651053505698	-996.008	475.8	158.112	12.11	-2.38	61.6	-186	634.5	-184.5	0	0	0	0	0	0	0	0	0	0	0	0	0	0	0	0	0	0	1019	836	0
1651053505708	-1025.288	414.312	219.6	-1.61	5.6	71.47	-187.5	636	-186	0	0	0	0	0	0	0	0	0	0	0	0	0	0	0	0	0	0	1015	842	0
1651053505718	-1031.144	391.864	183.976	-5.74	-13.44	85.4	-193.5	633	-186	0	0	0	0	0	0	0	0	0	0	0	0	0	0	0	0	0	0	998	831	0
1651053505728	-1006.744	434.808	121.512	-3.01	-38.78	91.49	-199.5	634.5	-183	0	0	0	0	0	0	0	0	0	0	0	0	0	0	0	0	0	0	1010	837	0
1651053505738	-936.472	601.704	89.304	5.6	-50.12	89.11	-202.5	637.5	-181.5	0	0	0	0	0	0	0	0	0	0	0	0	0	0	0	0	0	0	1005	846	0
1651053505748	-939.4	578.768	148.84	18.83	-62.37	78.61	-208.5	634.5	-186	0	0	0	0	0	0	0	0	0	0	0	0	0	0	0	0	0	0	1004	841	0
1651053505758	-889.624	553.392	209.352	31.85	-67.48	64.61	-219	633	-193.5	0	0	0	0	0	0	0	0	0	0	0	0	0	0	0	0	0	0	1008	844	0
1651053505768	-868.64	534.848	211.304	35.07	-63.14	49.91	-229.5	636	-199.5	0	0	0	0	0	0	0	0	0	0	0	0	0	0	0	0	0	0	1021	850	0
1651053505778	-748.104	559.248	280.112	34.23	-58.03	40.53	-229.5	642	-201	0	0	0	0	0	0	0	0	0	0	0	0	0	0	0	0	0	0	1019	851	0
1651053505788	-733.952	549	281.088	31.08	-48.3	34.02	-228	643.5	-202.5	0	0	0	0	0	0	0	0	0	0	0	0	0	0	0	0	0	0	1010	850	0
1651053505798	-737.856	542.168	267.424	23.59	-42.77	33.25	-229.5	642	-202.5	0	0	0	0	0	0	0	0	0	0	0	0	0	0	0	0	0	0	1019	849	0
1651053505808	-781.288	581.696	207.888	15.68	-39.83	38.5	-234	643.5	-201	0	0	0	0	0	0	0	0	0	0	0	0	0	0	0	0	0	0	1014	848	0
1651053505818	-837.896	632.936	170.312	25.2	-52.29	46.55	-240	642	-211.5	0	0	0	0	0	0	0	0	0	0	0	0	0	0	0	0	0	0	1006	858	0
1651053505828	-779.824	434.32	375.76	24.29	-53.55	41.79	-240	637.5	-222	0	0	0	0	0	0	0	0	0	0	0	0	0	0	0	0	0	0	1015	844	0
1651053505838	-847.656	709.064	-32.696	-3.64	-77.28	-85.26	-243	646.5	-223.5	0	0	0	0	0	0	0	0	0	0	0	0	0	0	0	0	0	0	1029	851	0
1651053505848	-1030.656	602.192	280.112	39.41	-75.88	-50.54	-241.5	649.5	-231	0	0	0	0	0	0	0	0	0	0	0	0	0	0	0	0	0	0	1026	869	0
1651053505858	-876.448	556.808	254.736	44.31	-53.06	-36.26	-235.5	648	-240	0	0	0	0	0	0	0	0	0	0	0	0	0	0	0	0	0	0	1013	862	0
1651053505868	-800.808	651.968	259.128	25.06	-24.92	-45.15	-232.5	649.5	-243	0	0	0	0	0	0	0	0	0	0	0	0	0	0	0	0	0	0	1022	864	0
1651053505878	-880.84	552.416	260.592	29.96	-11.34	-44.17	-232.5	660	-246	0	0	0	0	0	0	0	0	0	0	0	0	0	0	0	0	0	0	1035	858	0
1651053505888	-869.616	528.992	226.92	40.25	-17.5	-39.83	-225	658.5	-246	0	0	0	0	0	0	0	0	0	0	0	0	0	0	0	0	0	0	1029	850	0
1651053505898	-891.576	548.512	264.008	38.92	-14.63	-32.2	-217.5	658.5	-244.5	0	0	0	0	0	0	0	0	0	0	0	0	0	0	0	0	0	0	1030	854	0
1651053505908	-918.416	496.784	262.544	36.75	-1.75	-22.19	-213	658.5	-243	0	0	0	0	0	0	0	0	0	0	0	0	0	0	0	0	0	0	1023	862	0
1651053505918	-890.6	504.592	247.904	35.28	0.63	-14.42	-211.5	657	-241.5	0	0	0	0	0	0	0	0	0	0	0	0	0	0	0	0	0	0	1005	848	0
1651053505928	-784.216	536.8	276.696	20.93	7.14	-10.29	-210	657	-241.5	0	0	0	0	0	0	0	0	0	0	0	0	0	0	0	0	0	0	1019	843	0
1651053505938	-867.176	561.2	234.24	10.99	20.09	-18.34	-204	655.5	-243	0	0	0	0	0	0	0	0	0	0	0	0	0	0	0	0	0	0	1011	842	0
1651053505948	-935.496	500.2	225.944	19.6	24.08	-19.74	-201	661.5	-243	0	0	0	0	0	0	0	0	0	0	0	0	0	0	0	0	0	0	1017	842	0
1651053505958	-923.784	522.16	175.68	33.32	25.13	-16.73	-201	657	-241.5	0	0	0	0	0	0	0	0	0	0	0	0	0	0	0	0	0	0	1005	836	0
1651053505968	-935.008	537.288	189.832	47.25	17.99	-15.12	-198	652.5	-238.5	0	0	0	0	0	0	0	0	0	0	0	0	0	0	0	0	0	0	1012	834	0
1651053505978	-897.432	577.304	234.728	61.18	20.09	-11.06	-196.5	658.5	-234	0	0	0	0	0	0	0	0	0	0	0	0	0	0	0	0	0	0	997	841	0
1651053505988	-854	549.488	291.824	67.55	36.96	-10.22	-192	657	-234	0	0	0	0	0	0	0	0	0	0	0	0	0	0	0	0	0	0	1002	833	0
1651053505998	-861.808	462.624	236.192	68.95	43.54	-11.06	-192	657	-231	0	0	0	0	0	0	0	0	0	0	0	0	0	0	0	0	0	0	996	843	0
1651053506008	-869.128	489.952	180.072	57.33	49	-4.55	-189	660	-225	0	0	0	0	0	0	0	0	0	0	0	0	0	0	0	0	0	0	999	838	0
1651053506018	-857.904	514.352	192.272	50.4	61.81	-0.42	-184.5	657	-220.5	0	0	0	0	0	0	0	0	0	0	0	0	0	0	0	0	0	0	1010	846	0
1651053506028	-880.84	531.432	142.008	49.28	85.19	1.68	-186	658.5	-213	0	0	0	0	0	0	0	0	0	0	0	0	0	0	0	0	0	0	1007	846	0
1651053506038	-875.472	515.816	122.488	58.1	88.06	4.13	-187.5	654	-202.5	0	0	0	0	0	0	0	0	0	0	0	0	0	0	0	0	0	0	1007	850	0
1651053506048	-839.36	518.256	119.56	60.48	82.81	5.6	-183	648	-201	0	0	0	0	0	0	0	0	0	0	0	0	0	0	0	0	0	0	1009	847	0
1651053506058	-807.64	538.752	121.512	60.41	71.26	7.91	-180	646.5	-196.5	0	0	0	0	0	0	0	0	0	0	0	0	0	0	0	0	0	0	1017	851	0
1651053506068	-806.176	560.224	129.32	59.29	74.13	8.89	-178.5	633	-189	0	0	0	0	0	0	0	0	0	0	0	0	0	0	0	0	0	0	1011	858	0
1651053506078	-826.184	537.288	124.928	60.76	76.3	7.63	-177	631.5	-183	0	0	0	0	0	0	0	0	0	0	0	0	0	0	0	0	0	0	1007	868	0
1651053506088	-820.816	552.416	40.016	61.04	85.75	14	-183	639	-172.5	0	0	0	0	0	0	0	0	0	0	0	0	0	0	0	0	0	0	1013	868	0
1651053506098	-906.216	610	-54.168	53.62	84.91	13.58	-183	637.5	-165	0	0	0	0	0	0	0	0	0	0	0	0	0	0	0	0	0	0	1013	877	0
1651053506108	-837.896	614.88	-57.584	54.53	84.56	17.57	-178.5	636	-157.5	0	0	0	0	0	0	0	0	0	0	0	0	0	0	0	0	0	0	1011	883	0
1651053506118	-914.024	599.752	-63.928	60.83	103.88	17.92	-175.5	631.5	-147	0	0	0	0	0	0	0	0	0	0	0	0	0	0	0	0	0	0	1031	888	0
1651053506128	-941.84	523.624	-86.864	71.61	103.74	35.49	-175.5	625.5	-141	0	0	0	0	0	0	0	0	0	0	0	0	0	0	0	0	0	0	1029	901	0
1651053506138	-928.664	574.864	-44.896	72.38	109.76	41.86	-177	621	-135	0	0	0	0	0	0	0	0	0	0	0	0	0	0	0	0	0	0	1034	914	0
1651053506148	-845.704	537.288	24.888	71.05	113.82	48.44	-174	612	-118.5	0	0	0	0	0	0	0	0	0	0	0	0	0	0	0	0	0	0	1033	943	0
1651053506158	-775.92	552.904	1.464	72.52	111.16	51.73	-178.5	603	-108	0	0	0	0	0	0	0	0	0	0	0	0	0	0	0	0	0	0	1020	1042	0
1651053506168	-735.904	499.224	-58.56	78.19	97.72	53.13	-180	601.5	-105	0	0	0	0	0	0	0	0	0	0	0	0	0	0	0	0	0	0	1039	1338	0
1651053506178	-729.072	564.128	-114.68	77.7	94.78	47.25	-178.5	597	-97.5	0	0	0	0	0	0	0	0	0	0	0	0	0	0	0	0	0	0	1036	1917	0
1651053506188	-728.096	584.136	-190.808	64.61	102.83	44.38	-178.5	586.5	-87	0	0	0	0	0	0	0	0	0	0	0	0	0	0	0	0	0	0	1041	2208	0
1651053506198	-692.472	629.032	-245.464	65.59	109.69	41.65	-178.5	582	-73.5	0	0	0	0	0	0	0	0	0	0	0	0	0	0	0	0	0	0	1036	1725	0
1651053506208	-764.208	660.752	-345.992	67.55	131.46	41.09	-180	579	-60	0	0	0	0	0	0	0	0	0	0	0	0	0	0	0	0	0	0	1025	1312	0
1651053506218	-925.248	610	-255.712	66.22	145.25	50.05	-186	568.5	-48	0	0	0	0	0	0	0	0	0	0	0	0	0	0	0	0	0	0	1028	1106	0
1651053506228	-716.384	453.84	-136.64	49.42	118.44	64.96	-187.5	561	-33	0	0	0	0	0	0	0	0	0	0	0	0	0	0	0	0	0	0	1032	998	0
1651053506238	-623.664	514.84	-89.304	48.86	95.06	50.26	-189	547.5	-21	0	0	0	0	0	0	0	0	0	0	0	0	0	0	0	0	0	0	1031	951	0
1651053506248	-589.992	541.192	-158.6	40.04	75.67	42.63	-193.5	537	-15	0	0	0	0	0	0	0	0	0	0	0	0	0	0	0	0	0	0	1036	923	0
1651053506258	-613.904	543.144	-270.84	25.55	64.61	35	-189	540	-15	0	0	0	0	0	0	0	0	0	0	0	0	0	0	0	0	0	0	1031	901	0
1651053506268	-662.704	555.344	-304.024	16.17	52.57	32.41	-181.5	532.5	-10.5	0	0	0	0	0	0	0	0	0	0	0	0	0	0	0	0	0	0	1021	894	0
1651053506278	-710.04	568.52	-359.656	7.7	30.45	31.78	-183	523.5	-1.5	0	0	0	0	0	0	0	0	0	0	0	0	0	0	0	0	0	0	1036	887	0
1651053506288	-700.768	671.488	-372.832	7.84	25.55	30.1	-189	520.5	1.5	0	0	0	0	0	0	0	0	0	0	0	0	0	0	0	0	0	0	1025	884	0
1651053506298	-775.432	624.152	-389.424	11.48	45.64	35.28	-189	522	4.5	0	0	0	0	0	0	0	0	0	0	0	0	0	0	0	0	0	0	1017	879	0
1651053506308	-758.352	578.768	-257.176	7.7	57.54	38.78	-198	522	10.5	0	0	0	0	0	0	0	0	0	0	0	0	0	0	0	0	0	0	1018	883	0
1651053506318	-659.288	556.32	-128.832	18.9	48.65	34.58	-199.5	519	12	0	0	0	0	0	0	0	0	0	0	0	0	0	0	0	0	0	0	1023	874	0
1651053506328	-602.192	562.664	-257.664	36.61	25.83	27.72	-196.5	514.5	13.5	0	0	0	0	0	0	0	0	0	0	0	0	0	0	0	0	0	0	1028	870	0
1651053506338	-607.072	579.744	-306.952	35.77	4.9	24.01	-195	516	10.5	0	0	0	0	0	0	0	0	0	0	0	0	0	0	0	0	0	0	1035	874	0
1651053506348	-666.608	579.256	-310.368	25.83	-9.45	17.99	-192	513	16.5	0	0	0	0	0	0	0	0	0	0	0	0	0	0	0	0	0	0	1025	874	0
1651053506358	-635.376	594.384	-279.136	20.93	-7.21	23.03	-193.5	505.5	22.5	0	0	0	0	0	0	0	0	0	0	0	0	0	0	0	0	0	0	1029	872	0
1651053506368	-676.856	635.864	-194.712	31.15	10.99	33.53	-196.5	504	22.5	0	0	0	0	0	0	0	0	0	0	0	0	0	0	0	0	0	0	1039	876	0
1651053506378	-656.848	609.512	-385.52	39.76	54.18	62.93	-195	504	19.5	0	0	0	0	0	0	0	0	0	0	0	0	0	0	0	0	0	0	1024	864	0
1651053506388	-630.008	453.352	-549.976	54.67	58.24	65.73	-193.5	504	21	0	0	0	0	0	0	0	0	0	0	0	0	0	0	0	0	0	0	1029	861	0
1651053506398	-697.352	694.424	-459.696	23.24	38.08	41.23	-198	502.5	22.5	0	0	0	0	0	0	0	0	0	0	0	0	0	0	0	0	0	0	1023	861	0
1651053506408	-648.064	690.52	-403.088	39.97	-4.27	31.43	-202.5	498	24	0	0	0	0	0	0	0	0	0	0	0	0	0	0	0	0	0	0	1016	857	0
1651053506418	-683.2	654.896	-426.512	7.84	-5.53	10.85	-201	501	28.5	0	0	0	0	0	0	0	0	0	0	0	0	0	0	0	0	0	0	1019	848	0
1651053506428	-730.048	702.72	-396.744	1.05	-11.55	4.06	-198	502.5	30	0	0	0	0	0	0	0	0	0	0	0	0	0	0	0	0	0	0	1022	850	0
1651053506438	-709.064	653.432	-401.136	8.89	14.63	14.98	-199.5	499.5	30	0	0	0	0	0	0	0	0	0	0	0	0	0	0	0	0	0	0	1021	842	0
1651053506448	-723.704	650.992	-425.048	1.54	19.67	4.76	-204	499.5	33	0	0	0	0	0	0	0	0	0	0	0	0	0	0	0	0	0	0	1005	836	0
1651053506458	-689.056	666.608	-383.08	-0.98	24.22	1.89	-202.5	498	37.5	0	0	0	0	0	0	0	0	0	0	0	0	0	0	0	0	0	0	1001	844	0
1651053506468	-679.784	670.024	-403.576	0.42	29.68	5.74	-201	496.5	33	0	0	0	0	0	0	0	0	0	0	0	0	0	0	0	0	0	0	988	827	0
1651053506478	-700.768	659.288	-407.48	6.02	34.93	18.06	-198	489	33	0	0	0	0	0	0	0	0	0	0	0	0	0	0	0	0	0	0	989	849	0
1651053506488	-639.768	672.464	-407.968	-2.31	28.77	18.62	-199.5	487.5	34.5	0	0	0	0	0	0	0	0	0	0	0	0	0	0	0	0	0	0	986	854	0
1651053506498	-615.856	584.624	-351.848	-0.63	26.32	15.54	-201	490.5	36	0	0	0	0	0	0	0	0	0	0	0	0	0	0	0	0	0	0	992	865	0
1651053506508	-614.392	611.464	-359.656	6.65	21.28	14.56	-202.5	487.5	42	0	0	0	0	0	0	0	0	0	0	0	0	0	0	0	0	0	0	994	869	0
1651053506518	-614.88	651.968	-333.792	-0.63	11.13	9.45	-207	478.5	43.5	0	0	0	0	0	0	0	0	0	0	0	0	0	0	0	0	0	0	994	891	0
1651053506528	-620.248	640.256	-340.624	-3.64	-0.28	8.26	-210	481.5	40.5	0	0	0	0	0	0	0	0	0	0	0	0	0	0	0	0	0	0	1000	898	0
1651053506539	-576.328	668.072	-416.264	-18.34	-12.67	16.17	-205.5	486	45	0	0	0	0	0	0	0	0	0	0	0	0	0	0	0	0	0	0	1017	888	0
1651053506549	-681.248	576.816	-469.944	-14.63	-16.45	6.58	-204	483	45	0	0	0	0	0	0	0	0	0	0	0	0	0	0	0	0	0	0	1019	885	0
1651053506559	-635.864	704.672	-398.208	5.25	-16.03	3.92	-211.5	484.5	43.5	0	0	0	0	0	0	0	0	0	0	0	0	0	0	0	0	0	0	1030	896	0
1651053506569	-586.576	689.544	-441.64	2.52	-10.29	3.43	-214.5	487.5	43.5	0	0	0	0	0	0	0	0	0	0	0	0	0	0	0	0	0	0	1029	906	0
1651053506579	-607.56	662.216	-427.976	-0.56	-5.04	1.89	-214.5	492	39	0	0	0	0	0	0	0	0	0	0	0	0	0	0	0	0	0	0	1034	903	0
1651053506589	-645.624	676.368	-405.528	-0.7	-6.16	1.26	-211.5	493.5	36	0	0	0	0	0	0	0	0	0	0	0	0	0	0	0	0	0	0	1043	917	0
1651053506599	-609.512	736.392	-395.768	7	9.73	11.48	-207	489	36	0	0	0	0	0	0	0	0	0	0	0	0	0	0	0	0	0	0	1051	911	0
1651053506609	-653.92	659.288	-446.52	5.67	22.47	9.17	-204	484.5	39	0	0	0	0	0	0	0	0	0	0	0	0	0	0	0	0	0	0	1050	898	0
1651053506619	-651.968	649.04	-409.432	-0.14	21.91	7.63	-207	484.5	43.5	0	0	0	0	0	0	0	0	0	0	0	0	0	0	0	0	0	0	1068	893	0
1651053506629	-613.904	658.8	-419.192	2.94	16.45	7.84	-213	483	42	0	0	0	0	0	0	0	0	0	0	0	0	0	0	0	0	0	0	1061	888	0
1651053506639	-589.992	478.24	-375.272	-2.03	9.59	5.74	-217.5	481.5	39	0	0	0	0	0	0	0	0	0	0	0	0	0	0	0	0	0	0	1059	881	0
1651053506649	-586.088	732.976	-488	-1.12	6.3	3.22	-208.5	483	39	0	0	0	0	0	0	0	0	0	0	0	0	0	0	0	0	0	0	1049	870	0
1651053506659	-591.944	635.864	-395.28	-4.34	2.1	0.07	-210	483	43.5	0	0	0	0	0	0	0	0	0	0	0	0	0	0	0	0	0	0	1049	858	0
1651053506669	-598.288	659.288	-445.544	-3.15	4.27	2.17	-217.5	481.5	39	0	0	0	0	0	0	0	0	0	0	0	0	0	0	0	0	0	0	1032	853	0
1651053506679	-624.64	662.704	-431.88	-6.93	4.62	-0.84	-219	480	43.5	0	0	0	0	0	0	0	0	0	0	0	0	0	0	0	0	0	0	1017	859	0
1651053506689	-605.12	664.656	-400.648	-4.06	7	-2.03	-219	480	46.5	0	0	0	0	0	0	0	0	0	0	0	0	0	0	0	0	0	0	1010	842	0
1651053506699	-606.096	652.944	-406.992	-4.48	5.32	-1.54	-214.5	481.5	43.5	0	0	0	0	0	0	0	0	0	0	0	0	0	0	0	0	0	0	997	849	0
1651053506709	-586.088	679.784	-381.616	-0.63	13.65	8.75	-211.5	480	48	0	0	0	0	0	0	0	0	0	0	0	0	0	0	0	0	0	0	983	865	0
1651053506719	-566.568	625.616	-448.96	4.41	19.74	16.17	-214.5	475.5	46.5	0	0	0	0	0	0	0	0	0	0	0	0	0	0	0	0	0	0	985	863	0
1651053506729	-606.584	686.616	-427.488	11.41	23.8	31.01	-217.5	477	45	0	0	0	0	0	0	0	0	0	0	0	0	0	0	0	0	0	0	999	876	0
1651053506739	-572.424	390.4	-141.032	20.3	56.35	40.25	-219	474	48	0	0	0	0	0	0	0	0	0	0	0	0	0	0	0	0	0	0	1020	898	0
1651053506749	-658.8	725.168	-432.368	73.64	45.15	53.27	-214.5	469.5	55.5	0	0	0	0	0	0	0	0	0	0	0	0	0	0	0	0	0	0	1033	925	0
1651053506759	-440.664	783.24	-718.336	45.36	41.79	57.47	-207	463.5	63	0	0	0	0	0	0	0	0	0	0	0	0	0	0	0	0	0	0	1058	948	0
1651053506769	-538.752	698.816	-477.752	3.92	25.83	13.65	-205.5	459	67.5	0	0	0	0	0	0	0	0	0	0	0	0	0	0	0	0	0	0	1071	963	0
1651053506779	-608.536	608.536	-428.464	7.56	13.86	7.14	-205.5	462	69	0	0	0	0	0	0	0	0	0	0	0	0	0	0	0	0	0	0	1103	975	0
1651053506789	-573.4	700.768	-459.208	1.68	14.07	1.05	-207	463.5	69	0	0	0	0	0	0	0	0	0	0	0	0	0	0	0	0	0	0	1109	993	0
1651053506799	-572.424	671	-390.4	0.56	13.65	0.42	-210	460.5	66	0	0	0	0	0	0	0	0	0	0	0	0	0	0	0	0	0	0	1117	1004	0
1651053506809	-503.616	662.216	-462.136	-0.28	14.77	2.17	-210	460.5	70.5	0	0	0	0	0	0	0	0	0	0	0	0	0	0	0	0	0	0	1124	1008	0
1651053506819	-546.56	654.408	-442.616	-5.46	16.94	-0.21	-213	454.5	75	0	0	0	0	0	0	0	0	0	0	0	0	0	0	0	0	0	0	1140	1018	0
1651053506829	-549	686.128	-414.312	-3.43	16.52	-1.54	-211.5	451.5	79.5	0	0	0	0	0	0	0	0	0	0	0	0	0	0	0	0	0	0	1141	1029	0
1651053506839	-563.64	681.736	-488.976	0.21	14.7	1.68	-211.5	453	79.5	0	0	0	0	0	0	0	0	0	0	0	0	0	0	0	0	0	0	1153	1027	0
1651053506849	-566.08	691.008	-487.512	4.62	12.81	1.89	-208.5	454.5	76.5	0	0	0	0	0	0	0	0	0	0	0	0	0	0	0	0	0	0	1171	1031	0
1651053506859	-575.352	695.4	-504.592	9.45	19.6	1.61	-205.5	453	78	0	0	0	0	0	0	0	0	0	0	0	0	0	0	0	0	0	0	1164	1023	0
1651053506869	-560.224	691.496	-488	12.25	30.17	10.5	-208.5	450	75	0	0	0	0	0	0	0	0	0	0	0	0	0	0	0	0	0	0	1162	1020	0
1651053506879	-582.672	679.296	-474.824	13.3	36.89	13.72	-207	445.5	79.5	0	0	0	0	0	0	0	0	0	0	0	0	0	0	0	0	0	0	1150	1009	0
1651053506889	-559.248	674.904	-460.184	8.96	38.92	10.15	-207	442.5	88.5	0	0	0	0	0	0	0	0	0	0	0	0	0	0	0	0	0	0	1139	993	0
1651053506899	-534.36	670.024	-466.528	10.15	42.07	15.19	-208.5	441	85.5	0	0	0	0	0	0	0	0	0	0	0	0	0	0	0	0	0	0	1123	985	0
1651053506909	-525.576	669.536	-483.608	11.06	45.43	21	-205.5	435	84	0	0	0	0	0	0	0	0	0	0	0	0	0	0	0	0	0	0	1102	972	0
1651053506919	-544.608	628.056	-495.32	9.31	49.28	30.73	-205.5	438	87	0	0	0	0	0	0	0	0	0	0	0	0	0	0	0	0	0	0	1078	962	0
1651053506929	-527.04	719.8	-492.392	10.43	54.04	27.93	-207	435	88.5	0	0	0	0	0	0	0	0	0	0	0	0	0	0	0	0	0	0	1062	954	0
1651053506939	-520.696	665.632	-525.088	15.75	60.34	46.27	-210	423	87	0	0	0	0	0	0	0	0	0	0	0	0	0	0	0	0	0	0	1054	955	0
1651053506949	-416.264	795.928	-539.728	22.26	65.8	51.94	-208.5	427.5	90	0	0	0	0	0	0	0	0	0	0	0	0	0	0	0	0	0	0	1060	974	0
1651053506958	-440.176	661.728	-570.472	14.7	58.73	29.82	-207	424.5	90	0	0	0	0	0	0	0	0	0	0	0	0	0	0	0	0	0	0	1056	973	0
1651053506968	-511.912	655.384	-509.472	12.39	74.55	41.37	-211.5	414	91.5	0	0	0	0	0	0	0	0	0	0	0	0	0	0	0	0	0	0	1061	972	0
1651053506978	-453.352	696.376	-492.392	16.1	92.54	46.06	-213	408	94.5	0	0	0	0	0	0	0	0	0	0	0	0	0	0	0	0	0	0	1076	995	0
1651053506988	-425.048	529.968	-542.656	21.56	91.63	30.52	-216	402	100.5	0	0	0	0	0	0	0	0	0	0	0	0	0	0	0	0	0	0	1090	1017	0
1651053506998	-473.848	692.96	-522.16	22.33	104.16	46.2	-211.5	393	103.5	0	0	0	0	0	0	0	0	0	0	0	0	0	0	0	0	0	0	1103	1033	0
1651053507008	-469.456	727.608	-500.2	18.55	112.77	46.62	-205.5	382.5	103.5	0	0	0	0	0	0	0	0	0	0	0	0	0	0	0	0	0	0	1116	1044	0
1651053507018	-408.456	746.152	-592.432	5.88	105.28	39.76	-202.5	370.5	106.5	0	0	0	0	0	0	0	0	0	0	0	0	0	0	0	0	0	0	1128	1058	0
1651053507028	-385.032	718.336	-597.312	-0.7	111.72	37.94	-202.5	361.5	112.5	0	0	0	0	0	0	0	0	0	0	0	0	0	0	0	0	0	0	1131	1066	0
1651053507038	-388.936	714.432	-624.64	-2.45	130.48	35.28	-208.5	352.5	117	0	0	0	0	0	0	0	0	0	0	0	0	0	0	0	0	0	0	1135	1072	0
1651053507048	-376.248	725.168	-647.576	-1.75	155.89	21.07	-208.5	352.5	117	0	0	0	0	0	0	0	0	0	0	0	0	0	0	0	0	0	0	1144	1078	0
1651053507058	-356.24	695.888	-660.264	3.43	149.03	19.46	-210	340.5	120	0	0	0	0	0	0	0	0	0	0	0	0	0	0	0	0	0	0	1138	1092	0
1651053507068	-271.328	619.76	-659.288	-8.26	139.3	18.34	-211.5	327	126	0	0	0	0	0	0	0	0	0	0	0	0	0	0	0	0	0	0	1143	1089	0
1651053507078	-304.512	703.208	-629.52	4.2	143.85	28.98	-216	315	130.5	0	0	0	0	0	0	0	0	0	0	0	0	0	0	0	0	0	0	1153	1084	0
1651053507088	-396.256	669.048	-669.536	14.42	165.41	45.5	-214.5	303	133.5	0	0	0	0	0	0	0	0	0	0	0	0	0	0	0	0	0	0	1165	1074	0
1651053507098	-242.536	779.824	-574.376	15.33	205.8	66.5	-208.5	291	136.5	0	0	0	0	0	0	0	0	0	0	0	0	0	0	0	0	0	0	1170	1066	0
1651053507108	-234.728	659.288	-626.104	23.73	235.06	63.91	-211.5	273	141	0	0	0	0	0	0	0	0	0	0	0	0	0	0	0	0	0	0	1156	1071	0
1651053507118	-168.36	692.96	-637.816	30.73	232.54	82.74	-213	256.5	145.5	0	0	0	0	0	0	0	0	0	0	0	0	0	0	0	0	0	0	1127	1045	0
1651053507128	-109.312	720.776	-648.064	30.52	210.21	74.41	-211.5	237	147	0	0	0	0	0	0	0	0	0	0	0	0	0	0	0	0	0	0	1103	1025	0
1651053507138	-72.224	715.408	-670.024	32.83	184.8	56.28	-208.5	213	145.5	0	0	0	0	0	0	0	0	0	0	0	0	0	0	0	0	0	0	1091	1013	0
1651053507148	-94.672	701.256	-702.72	40.11	151.06	33.04	-211.5	193.5	145.5	0	0	0	0	0	0	0	0	0	0	0	0	0	0	0	0	0	0	1076	1014	0
1651053507158	-130.296	713.944	-697.352	46.34	137.76	40.53	-205.5	180	145.5	0	0	0	0	0	0	0	0	0	0	0	0	0	0	0	0	0	0	1075	1028	0
1651053507168	-100.04	694.424	-715.408	52.01	143.64	54.88	-198	166.5	150	0	0	0	0	0	0	0	0	0	0	0	0	0	0	0	0	0	0	1074	1034	0
1651053507178	-23.424	700.768	-738.344	51.31	146.65	65.73	-199.5	147	150	0	0	0	0	0	0	0	0	0	0	0	0	0	0	0	0	0	0	1043	1024	0
1651053507188	35.136	722.24	-723.216	57.05	141.05	70.49	-189	132	147	0	0	0	0	0	0	0	0	0	0	0	0	0	0	0	0	0	0	1044	1020	0
1651053507198	41.968	664.168	-677.832	58.8	131.25	71.82	-178.5	123	151.5	0	0	0	0	0	0	0	0	0	0	0	0	0	0	0	0	0	0	1035	1007	0
1651053507208	43.92	649.528	-705.16	60.13	120.12	74.34	-175.5	108	150	0	0	0	0	0	0	0	0	0	0	0	0	0	0	0	0	0	0	1024	978	0
1651053507218	71.248	656.848	-737.856	62.44	114.31	73.36	-171	93	144	0	0	0	0	0	0	0	0	0	0	0	0	0	0	0	0	0	0	1025	970	0
1651053507228	41.48	602.68	-731.024	68.39	127.96	80.36	-168	87	142.5	0	0	0	0	0	0	0	0	0	0	0	0	0	0	0	0	0	0	1019	950	0
1651053507238	75.64	656.36	-736.392	67.13	135.17	74.34	-160.5	75	142.5	0	0	0	0	0	0	0	0	0	0	0	0	0	0	0	0	0	0	1036	939	0
1651053507248	114.68	614.88	-715.408	56.84	142.24	79.59	-154.5	61.5	142.5	0	0	0	0	0	0	0	0	0	0	0	0	0	0	0	0	0	0	1019	937	0
1651053507258	131.272	599.264	-703.696	54.6	141.47	85.75	-147	46.5	141	0	0	0	0	0	0	0	0	0	0	0	0	0	0	0	0	0	0	1038	941	0
1651053507268	162.504	595.36	-709.064	50.75	143.78	94.29	-138	30	138	0	0	0	0	0	0	0	0	0	0	0	0	0	0	0	0	0	0	1027	921	0
1651053507278	223.016	614.88	-677.832	47.46	140.56	98.21	-126	16.5	130.5	0	0	0	0	0	0	0	0	0	0	0	0	0	0	0	0	0	0	1042	931	0
1651053507288	293.288	607.56	-711.016	44.73	125.79	97.09	-120	9	123	0	0	0	0	0	0	0	0	0	0	0	0	0	0	0	0	0	0	1041	928	0
1651053507298	307.44	552.416	-671.976	44.31	114.59	94.36	-115.5	0	123	0	0	0	0	0	0	0	0	0	0	0	0	0	0	0	0	0	0	1041	930	0
1651053507308	352.824	550.464	-707.112	42.07	97.86	86.8	-106.5	-10.5	117	0	0	0	0	0	0	0	0	0	0	0	0	0	0	0	0	0	0	1050	931	0
1651053507318	378.688	527.04	-727.12	45.92	76.44	76.37	-100.5	-18	112.5	0	0	0	0	0	0	0	0	0	0	0	0	0	0	0	0	0	0	1048	927	0
1651053507328	355.264	570.472	-763.72	47.11	60.13	69.09	-93	-28.5	115.5	0	0	0	0	0	0	0	0	0	0	0	0	0	0	0	0	0	0	1055	930	0
1651053507338	328.424	529.48	-791.048	42.28	54.53	68.11	-84	-36	114	0	0	0	0	0	0	0	0	0	0	0	0	0	0	0	0	0	0	1052	920	0
1651053507348	340.136	511.424	-739.32	14.63	29.19	70.42	-81	-42	111	0	0	0	0	0	0	0	0	0	0	0	0	0	0	0	0	0	0	1052	912	0
1651053507358	406.504	513.864	-745.176	-18.97	-26.95	73.85	-73.5	-37.5	105	0	0	0	0	0	0	0	0	0	0	0	0	0	0	0	0	0	0	1052	901	0
1651053507368	468.968	488	-672.464	-21.91	-53.41	48.02	-69	-39	102	0	0	0	0	0	0	0	0	0	0	0	0	0	0	0	0	0	0	1032	896	0
1651053507379	435.784	466.528	-622.2	-9.8	-32.27	47.39	-72	-40.5	105	0	0	0	0	0	0	0	0	0	0	0	0	0	0	0	0	0	0	1023	892	0
1651053507389	390.4	516.792	-635.376	10.15	9.31	56.35	-70.5	-36	111	0	0	0	0	0	0	0	0	0	0	0	0	0	0	0	0	0	0	1021	904	0
1651053507399	400.16	467.992	-685.152	35	58.45	72.94	-69	-33	111	0	0	0	0	0	0	0	0	0	0	0	0	0	0	0	0	0	0	1023	924	0
1651053507409	424.56	417.728	-719.8	46.69	100.87	89.46	-66	-31.5	114	0	0	0	0	0	0	0	0	0	0	0	0	0	0	0	0	0	0	1028	959	0
1651053507419	463.6	462.624	-723.216	48.3	125.65	103.11	-58.5	-39	112.5	0	0	0	0	0	0	0	0	0	0	0	0	0	0	0	0	0	0	1073	1009	0
1651053507429	542.168	469.944	-730.048	50.89	136.29	87.15	-54	-43.5	106.5	0	0	0	0	0	0	0	0	0	0	0	0	0	0	0	0	0	0	1118	1049	0
1651053507439	548.024	468.968	-752.008	54.67	123.34	74.97	-49.5	-48	102	0	0	0	0	0	0	0	0	0	0	0	0	0	0	0	0	0	0	1127	1066	0
1651053507449	551.44	459.696	-784.216	62.93	91.42	68.25	-39	-58.5	91.5	0	0	0	0	0	0	0	0	0	0	0	0	0	0	0	0	0	0	1140	1074	0
1651053507459	508.984	451.4	-779.336	51.45	84	82.74	-27	-69	84	0	0	0	0	0	0	0	0	0	0	0	0	0	0	0	0	0	0	1145	1092	0
1651053507469	-97.112	3055.856	-1123.864	49.91	79.38	93.31	-24	-72	82.5	0	0	0	0	0	0	0	0	0	0	0	0	0	0	0	0	0	0	1161	1096	0
1651053507479	668.56	90.768	-630.984	1.89	-101.78	13.37	-16.5	-78	84	0	0	0	0	0	0	0	0	0	0	0	0	0	0	0	0	0	0	1165	1106	0
1651053507489	597.8	238.144	-748.104	-10.99	-64.19	-9.24	-9	-81	84	0	0	0	0	0	0	0	0	0	0	0	0	0	0	0	0	0	0	1178	1114	0
1651053507499	543.144	483.608	-650.992	5.32	-47.88	-5.74	-9	-81	87	0	0	0	0	0	0	0	0	0	0	0	0	0	0	0	0	0	0	1192	1117	0
1651053507509	556.808	375.272	-750.056	24.36	-27.02	0.21	-7.5	-75	88.5	0	0	0	0	0	0	0	0	0	0	0	0	0	0	0	0	0	0	1191	1123	0
1651053507519	511.424	374.784	-703.696	47.6	0.63	7.14	-7.5	-67.5	87	0	0	0	0	0	0	0	0	0	0	0	0	0	0	0	0	0	0	1202	1134	0
1651053507529	522.16	320.616	-764.208	57.19	17.22	2.66	-3	-63	84	0	0	0	0	0	0	0	0	0	0	0	0	0	0	0	0	0	0	1206	1137	0
1651053507539	558.76	408.944	-722.728	57.75	23.66	-0.98	-1.5	-63	84	0	0	0	0	0	0	0	0	0	0	0	0	0	0	0	0	0	0	1213	1131	0
1651053507549	473.848	386.496	-820.816	66.99	10.22	-0.21	9	-67.5	84	0	0	0	0	0	0	0	0	0	0	0	0	0	0	0	0	0	0	1225	1143	0
1651053507559	502.152	327.936	-809.592	79.87	3.01	5.88	12	-67.5	78	0	0	0	0	0	0	0	0	0	0	0	0	0	0	0	0	0	0	1235	1145	0
1651053507569	479.216	236.192	-780.8	83.02	-13.44	-9.17	16.5	-69	72	0	0	0	0	0	0	0	0	0	0	0	0	0	0	0	0	0	0	1236	1140	0
1651053507579	480.192	256.688	-776.408	72.38	-42.56	-23.73	24	-69	75	0	0	0	0	0	0	0	0	0	0	0	0	0	0	0	0	0	0	1248	1142	0
1651053507589	606.096	434.32	-736.88	55.58	-53.69	-6.02	28.5	-66	79.5	0	0	0	0	0	0	0	0	0	0	0	0	0	0	0	0	0	0	1258	1133	0
1651053507599	534.848	409.92	-855.464	16.66	-71.82	-3.43	31.5	-66	81	0	0	0	0	0	0	0	0	0	0	0	0	0	0	0	0	0	0	1260	1134	0
1651053507609	621.712	310.856	-650.016	3.71	-87.01	-48.44	36	-55.5	79.5	0	0	0	0	0	0	0	0	0	0	0	0	0	0	0	0	0	0	1254	1134	0
1651053507619	517.28	199.592	-681.736	47.18	-76.16	-41.51	34.5	-52.5	78	0	0	0	0	0	0	0	0	0	0	0	0	0	0	0	0	0	0	1269	1143	0
1651053507629	559.736	360.632	-1003.816	74.83	-56.84	-16.66	34.5	-54	79.5	0	0	0	0	0	0	0	0	0	0	0	0	0	0	0	0	0	0	1272	1151	0
1651053507639	401.624	261.08	-922.808	46.62	-17.71	-6.58	40.5	-51	84	0	0	0	0	0	0	0	0	0	0	0	0	0	0	0	0	0	0	1260	1147	0
1651053507649	397.232	292.8	-857.416	64.26	-29.54	-7.7	40.5	-43.5	84	0	0	0	0	0	0	0	0	0	0	0	0	0	0	0	0	0	0	1261	1159	0
1651053507659	374.296	263.52	-892.064	57.82	-23.73	11.27	39	-36	75	0	0	0	0	0	0	0	0	0	0	0	0	0	0	0	0	0	0	1268	1169	0
1651053507669	393.328	232.776	-854	60.2	-32.69	29.89	49.5	-36	78	0	0	0	0	0	0	0	0	0	0	0	0	0	0	0	0	0	0	1272	1174	0
1651053507679	352.824	289.872	-800.808	57.4	-55.16	37.45	58.5	-36	81	0	0	0	0	0	0	0	0	0	0	0	0	0	0	0	0	0	0	1248	1185	0
1651053507689	395.768	151.768	-778.848	61.81	-86.38	50.47	66	-36	79.5	0	0	0	0	0	0	0	0	0	0	0	0	0	0	0	0	0	0	1203	1177	0
1651053507699	505.08	178.12	-798.368	65.31	-106.19	60.27	75	-25.5	76.5	0	0	0	0	0	0	0	0	0	0	0	0	0	0	0	0	0	0	1131	1170	0
1651053507709	553.88	239.12	-821.304	63.98	-113.19	56.91	79.5	-9	75	0	0	0	0	0	0	0	0	0	0	0	0	0	0	0	0	0	0	1076	1160	0
1651053507719	640.744	286.944	-849.12	59.71	-101.22	45.43	85.5	0	73.5	0	0	0	0	0	0	0	0	0	0	0	0	0	0	0	0	0	0	1053	1145	0
1651053507729	494.344	296.704	-869.616	50.12	-82.88	27.16	94.5	10.5	84	0	0	0	0	0	0	0	0	0	0	0	0	0	0	0	0	0	0	1039	1114	0
1651053507739	324.52	255.224	-874.008	60.83	-74.76	25.34	94.5	18	87	0	0	0	0	0	0	0	0	0	0	0	0	0	0	0	0	0	0	1038	1072	0
1651053507749	226.432	230.336	-833.504	113.47	-55.65	49	96	24	75	0	0	0	0	0	0	0	0	0	0	0	0	0	0	0	0	0	0	1041	1042	0
1651053507759	371.856	174.216	-922.32	162.75	-40.39	75.39	109.5	36	72	0	0	0	0	0	0	0	0	0	0	0	0	0	0	0	0	0	0	1056	1014	0
1651053507769	214.72	92.232	-812.032	160.09	-74.27	63	120	39	70.5	0	0	0	0	0	0	0	0	0	0	0	0	0	0	0	0	0	0	1070	999	0
1651053507779	50.264	60.024	-436.272	188.72	-138.32	97.16	138	42	64.5	0	0	0	0	0	0	0	0	0	0	0	0	0	0	0	0	0	0	1062	1049	0
1651053507789	-106.872	-43.432	-141.032	237.86	-275.17	142.1	150	57	52.5	0	0	0	0	0	0	0	0	0	0	0	0	0	0	0	0	0	0	1102	1211	0
1651053507799	-1581.12	755.424	-4491.064	258.86	-591.43	139.93	165	81	48	0	0	0	0	0	0	0	0	0	0	0	0	0	0	0	0	0	0	1179	1270	0
1651053507809	-3.416	-74.176	-1497.184	50.89	-805.63	192.99	183	123	40.5	0	0	0	0	0	0	0	0	0	0	0	0	0	0	0	0	0	0	1284	1309	0
1651053507819	851.56	733.952	1795.84	-35.84	-280.21	117.53	187.5	190.5	30	0	0	0	0	0	0	0	0	0	0	0	0	0	0	0	0	0	0	1295	1322	0
1651053507829	-30.256	11.712	-296.216	36.82	47.67	30.03	190.5	226.5	27	0	0	0	0	0	0	0	0	0	0	0	0	0	0	0	0	0	0	1232	1289	0
1651053507839	22.448	45.384	-675.88	-8.33	42	84.56	198	234	31.5	0	0	0	0	0	0	0	0	0	0	0	0	0	0	0	0	0	0	1172	1215	0
1651053507849	53.192	-210.816	-932.568	-47.74	1.4	80.01	190.5	235.5	31.5	0	0	0	0	0	0	0	0	0	0	0	0	0	0	0	0	0	0	1116	1118	0
1651053507859	86.864	-66.856	-1103.856	-20.16	-1.33	62.09	184.5	235.5	37.5	0	0	0	0	0	0	0	0	0	0	0	0	0	0	0	0	0	0	1072	1026	0
1651053507869	143.96	-5.368	-1038.952	26.53	0.28	52.08	184.5	240	39	0	0	0	0	0	0	0	0	0	0	0	0	0	0	0	0	0	0	1055	997	0
1651053507879	42.456	15.616	-998.448	27.02	-1.75	45.92	184.5	243	39	0	0	0	0	0	0	0	0	0	0	0	0	0	0	0	0	0	0	1031	1009	0
1651053507889	139.568	-144.448	-1003.816	22.4	1.33	47.32	184.5	246	33	0	0	0	0	0	0	0	0	0	0	0	0	0	0	0	0	0	0	1017	1037	0
1651053507899	209.84	-69.296	-995.52	8.47	-2.66	47.32	181.5	247.5	28.5	0	0	0	0	0	0	0	0	0	0	0	0	0	0	0	0	0	0	1023	1081	0
1651053507909	92.232	-35.624	-1040.904	-8.47	-0.84	42.84	183	252	33	0	0	0	0	0	0	0	0	0	0	0	0	0	0	0	0	0	0	1020	1096	0
1651053507919	96.136	-25.864	-1017.48	-14.91	-0.07	38.43	181.5	259.5	27	0	0	0	0	0	0	0	0	0	0	0	0	0	0	0	0	0	0	1008	1083	0
1651053507929	11.712	-18.544	-982.832	-10.85	2.8	32.34	181.5	258	31.5	0	0	0	0	0	0	0	0	0	0	0	0	0	0	0	0	0	0	1078	1120	0
1651053507939	142.496	-163.48	-1077.016	3.43	-1.61	28.63	175.5	255	30	0	0	0	0	0	0	0	0	0	0	0	0	0	0	0	0	0	0	1107	1202	0
1651053507949	83.448	-139.568	-1038.952	14.84	-2.03	23.45	172.5	261	27	0	0	0	0	0	0	0	0	0	0	0	0	0	0	0	0	0	0	1100	1253	0
1651053507959	107.36	-201.544	-977.952	16.1	0.63	27.86	174	264	31.5	0	0	0	0	0	0	0	0	0	0	0	0	0	0	0	0	0	0	1107	1276	0
1651053507969	-6.344	-21.472	-865.712	1.61	1.75	25.9	178.5	268.5	31.5	0	0	0	0	0	0	0	0	0	0	0	0	0	0	0	0	0	0	1129	1276	0
1651053507979	154.208	-57.584	-1026.264	-7.77	0.07	27.86	181.5	264	27	0	0	0	0	0	0	0	0	0	0	0	0	0	0	0	0	0	0	1144	1293	0
1651053507989	38.552	54.656	-934.52	-14.84	-0.7	24.92	181.5	264	28.5	0	0	0	0	0	0	0	0	0	0	0	0	0	0	0	0	0	0	1146	1300	0
1651053507999	152.256	-20.984	-1001.864	-14.07	2.03	21.84	180	268.5	34.5	0	0	0	0	0	0	0	0	0	0	0	0	0	0	0	0	0	0	1188	1321	0
1651053508009	79.544	-13.664	-1057.496	-8.47	1.47	18.27	178.5	274.5	31.5	0	0	0	0	0	0	0	0	0	0	0	0	0	0	0	0	0	0	1221	1344	0
1651053508019	122.976	-53.192	-998.936	1.89	0.63	17.15	174	273	28.5	0	0	0	0	0	0	0	0	0	0	0	0	0	0	0	0	0	0	1283	1366	0
1651053508029	118.584	14.64	-998.448	6.09	1.61	10.5	172.5	273	30	0	0	0	0	0	0	0	0	0	0	0	0	0	0	0	0	0	0	1333	1370	0
1651053508039	149.328	-74.176	-1006.744	5.88	-0.35	4.62	171	271.5	27	0	0	0	0	0	0	0	0	0	0	0	0	0	0	0	0	0	0	1365	1365	0
1651053508049	135.664	9.272	-988.2	2.87	-0.98	10.29	172.5	276	24	0	0	0	0	0	0	0	0	0	0	0	0	0	0	0	0	0	0	1384	1351	0
1651053508059	83.448	26.352	-1026.752	-4.13	-1.54	5.04	174	276	24	0	0	0	0	0	0	0	0	0	0	0	0	0	0	0	0	0	0	1391	1343	0
1651053508069	-5.856	119.072	-932.08	-6.3	0.77	-3.92	172.5	270	25.5	0	0	0	0	0	0	0	0	0	0	0	0	0	0	0	0	0	0	1390	1329	0
1651053508079	-54.168	122.488	-956.48	0.56	5.53	-8.54	174	276	24	0	0	0	0	0	0	0	0	0	0	0	0	0	0	0	0	0	0	1365	1293	0
1651053508089	1.464	137.128	-955.016	4.62	3.92	-8.61	174	279	28.5	0	0	0	0	0	0	0	0	0	0	0	0	0	0	0	0	0	0	1342	1266	0
1651053508099	61.488	40.992	-948.672	3.57	1.82	-15.68	177	271.5	30	0	0	0	0	0	0	0	0	0	0	0	0	0	0	0	0	0	0	1325	1297	0
1651053508109	135.176	28.304	-1021.384	3.71	-2.24	-16.66	177	264	30	0	0	0	0	0	0	0	0	0	0	0	0	0	0	0	0	0	0	1333	1274	0
1651053508119	45.872	96.136	-1002.352	0.77	-2.66	-15.82	172.5	261	33	0	0	0	0	0	0	0	0	0	0	0	0	0	0	0	0	0	0	1335	1275	0
1651053508129	135.176	15.128	-1034.56	-4.27	-1.89	-16.17	174	261	31.5	0	0	0	0	0	0	0	0	0	0	0	0	0	0	0	0	0	0	1332	1270	0
1651053508139	60.024	64.904	-1009.672	-6.44	0.21	-15.75	174	265.5	28.5	0	0	0	0	0	0	0	0	0	0	0	0	0	0	0	0	0	0	1346	1275	0
1651053508149	3.416	45.872	-995.032	-3.5	0.91	-15.75	172.5	264	25.5	0	0	0	0	0	0	0	0	0	0	0	0	0	0	0	0	0	0	1344	1253	0
1651053508159	-4.88	41.968	-979.416	0.77	0.84	-12.81	169.5	262.5	28.5	0	0	0	0	0	0	0	0	0	0	0	0	0	0	0	0	0	0	1336	1246	0
1651053508169	22.936	3.416	-1012.112	1.82	-0.49	-7.91	171	265.5	31.5	0	0	0	0	0	0	0	0	0	0	0	0	0	0	0	0	0	0	1343	1244	0
1651053508179	24.4	-28.792	-960.872	-2.73	-0.49	-14.56	177	264	34.5	0	0	0	0	0	0	0	0	0	0	0	0	0	0	0	0	0	0	1337	1233	0
1651053508189	8.784	-4.88	-989.664	-6.51	-0.42	-11.2	175.5	259.5	37.5	0	0	0	0	0	0	0	0	0	0	0	0	0	0	0	0	0	0	1346	1234	0
1651053508199	10.248	-18.056	-1008.208	-5.6	-0.21	-7.7	175.5	262.5	33	0	0	0	0	0	0	0	0	0	0	0	0	0	0	0	0	0	0	1353	1241	0
1651053508209	32.696	-15.616	-1010.16	-3.71	-0.21	-3.08	177	265.5	30	0	0	0	0	0	0	0	0	0	0	0	0	0	0	0	0	0	0	1358	1237	0
1651053508220	58.072	8.784	-998.936	-1.61	-0.35	-1.26	174	262.5	30	0	0	0	0	0	0	0	0	0	0	0	0	0	0	0	0	0	0	1357	1245	0
1651053508230	23.912	-13.176	-1017.48	-2.45	-0.35	-9.17	174	259.5	31.5	0	0	0	0	0	0	0	0	0	0	0	0	0	0	0	0	0	0	1363	1251	0
1651053508240	73.2	-13.664	-1014.552	-0.56	-0.56	-4.41	169.5	262.5	34.5	0	0	0	0	0	0	0	0	0	0	0	0	0	0	0	0	0	0	1362	1259	0
1651053508250	37.088	-5.368	-990.152	2.1	-0.63	0.35	172.5	259.5	31.5	0	0	0	0	0	0	0	0	0	0	0	0	0	0	0	0	0	0	1378	1271	0
1651053508260	49.776	-3.416	-979.904	3.43	-0.28	-0.07	177	258	33	0	0	0	0	0	0	0	0	0	0	0	0	0	0	0	0	0	0	1381	1276	0
1651053508270	57.584	-12.688	-996.984	-0.56	-0.21	0.28	180	259.5	31.5	0	0	0	0	0	0	0	0	0	0	0	0	0	0	0	0	0	0	1386	1294	0
1651053508280	56.608	-21.472	-982.344	-2.52	-0.14	0.35	177	259.5	28.5	0	0	0	0	0	0	0	0	0	0	0	0	0	0	0	0	0	0	1407	1308	0
1651053508290	33.672	-5.368	-1005.28	-2.87	-0.14	0.21	175.5	264	33	0	0	0	0	0	0	0	0	0	0	0	0	0	0	0	0	0	0	1415	1327	0
1651053508300	42.456	-1.952	-1007.72	0.84	-0.14	0.42	178.5	265.5	36	0	0	0	0	0	0	0	0	0	0	0	0	0	0	0	0	0	0	1425	1342	0
1651053508310	37.088	-10.736	-996.984	1.89	-0.42	0.28	178.5	261	34.5	0	0	0	0	0	0	0	0	0	0	0	0	0	0	0	0	0	0	1444	1356	0
1651053508320	49.288	-16.104	-991.616	2.31	-0.28	0.42	169.5	259.5	33	0	0	0	0	0	0	0	0	0	0	0	0	0	0	0	0	0	0	1471	1384	0
1651053508330	63.44	-10.248	-985.76	0.7	-0.21	0.42	172.5	258	34.5	0	0	0	0	0	0	0	0	0	0	0	0	0	0	0	0	0	0	1495	1416	0
1651053508340	51.24	-12.2	-992.592	-0.98	-0.14	0.42	180	256.5	34.5	0	0	0	0	0	0	0	0	0	0	0	0	0	0	0	0	0	0	1538	1457	0
1651053508350	40.992	-2.44	-999.424	-1.68	-0.14	0.28	174	259.5	34.5	0	0	0	0	0	0	0	0	0	0	0	0	0	0	0	0	0	0	1585	1512	0
1651053508360	42.456	-11.224	-997.96	-0.98	-0.14	0.35	177	264	34.5	0	0	0	0	0	0	0	0	0	0	0	0	0	0	0	0	0	0	1637	1578	0
1651053508370	23.424	-6.832	-992.592	-4.27	-1.19	-5.88	178.5	259.5	30	0	0	0	0	0	0	0	0	0	0	0	0	0	0	0	0	0	0	1732	1678	0
1651053508380	58.072	5.368	-1015.528	-1.89	-0.28	-0.56	169.5	256.5	31.5	0	0	0	0	0	0	0	0	0	0	0	0	0	0	0	0	0	0	1866	1816	0
1651053508390	48.312	-17.568	-985.76	1.4	-0.28	0.35	172.5	258	37.5	0	0	0	0	0	0	0	0	0	0	0	0	0	0	0	0	0	0	2028	2000	0
1651053508400	44.896	-10.248	-996.496	-0.49	-0.14	0.35	174	256.5	34.5	0	0	0	0	0	0	0	0	0	0	0	0	0	0	0	0	0	0	2250	2226	0
1651053508410	38.064	-11.712	-998.448	-1.19	-0.28	0.28	169.5	259.5	34.5	0	0	0	0	0	0	0	0	0	0	0	0	0	0	0	0	0	0	2530	2530	0
1651053508420	40.992	-6.344	-1005.28	-0.91	-0.21	0.35	175.5	262.5	36	0	0	0	0	0	0	0	0	0	0	0	0	0	0	0	0	0	0	2906	2942	0
1651053508430	44.408	-5.856	-998.448	0.49	-0.21	0.49	183	265.5	33	0	0	0	0	0	0	0	0	0	0	0	0	0	0	0	0	0	0	3420	3489	0
1651053508440	56.608	-8.784	-1000.4	1.4	-0.35	0.42	175.5	262.5	31.5	0	0	0	0	0	0	0	0	0	0	0	0	0	0	0	0	0	0	4116	4258	0
1651053508450	51.728	-17.08	-991.616	1.47	-0.35	0.49	169.5	256.5	34.5	0	0	0	0	0	0	0	0	0	0	0	0	0	0	0	0	0	0	5085	5307	0
1651053508460	21.96	-41.48	-917.44	-4.06	-0.63	-11.76	174	256.5	34.5	0	0	0	0	0	0	0	0	0	0	0	0	0	0	0	0	0	0	6394	6766	0
1651053508470	125.904	17.568	-1051.152	-2.17	-0.28	1.12	178.5	258	39	0	0	0	0	0	0	0	0	0	0	0	0	0	0	0	0	0	0	8187	8764	0
1651053508480	46.848	-2.44	-1000.4	-0.63	0	0.49	174	256.5	34.5	0	0	0	0	0	0	0	0	0	0	0	0	0	0	0	0	0	0	10605	11491	0
1651053508490	28.304	-13.664	-1002.352	0.28	-0.56	-0.42	172.5	253.5	34.5	0	0	0	0	0	0	0	0	0	0	0	0	0	0	0	0	0	0	13842	15108	0
1651053508500	44.896	1.952	-994.056	0.42	-0.35	0.21	171	256.5	40.5	0	0	0	0	0	0	0	0	0	0	0	0	0	0	0	0	0	0	17773	18976	0
1651053508510	48.312	-1.952	-1001.864	1.33	-0.21	-0.14	169.5	261	37.5	0	0	0	0	0	0	0	0	0	0	0	0	0	0	0	0	0	0	20820	21342	0
1651053508520	62.464	31.232	-1062.864	-0.49	-0.14	-9.24	172.5	258	39	0	0	0	0	0	0	0	0	0	0	0	0	0	0	0	0	0	0	22079	21784	0
1651053508530	46.36	-29.768	-983.32	1.19	-0.42	-3.85	174	255	39	0	0	0	0	0	0	0	0	0	0	0	0	0	0	0	0	0	0	22052	21341	0
1651053508540	57.096	-2.44	-994.056	-0.14	-0.21	-0.14	177	259.5	40.5	0	0	0	0	0	0	0	0	0	0	0	0	0	0	0	0	0	0	21976	21178	0
1651053508550	41.48	-12.2	-997.472	0.14	-0.07	0	175.5	258	37.5	0	0	0	0	0	0	0	0	0	0	0	0	0	0	0	0	0	0	22475	21626	0
1651053508560	51.24	-7.808	-994.544	0.35	-0.35	-0.49	169.5	256.5	33	0	0	0	0	0	0	0	0	0	0	0	0	0	0	0	0	0	0	23473	22556	0
1651053508570	42.944	-11.712	-993.08	1.05	-0.21	-1.26	169.5	256.5	37.5	0	0	0	0	0	0	0	0	0	0	0	0	0	0	0	0	0	0	24900	23880	0
1651053508580	33.184	9.272	-1005.768	1.61	-0.42	-18.48	169.5	253.5	39	0	0	0	0	0	0	0	0	0	0	0	0	0	0	0	0	0	0	26590	25520	0
1651053508590	71.248	-45.872	-996.008	3.92	-0.56	-4.62	175.5	249	34.5	0	0	0	0	0	0	0	0	0	0	0	0	0	0	0	0	0	0	28432	27487	0
1651053508600	44.408	-8.784	-1002.352	1.33	-0.14	0.42	178.5	249	33	0	0	0	0	0	0	0	0	0	0	0	0	0	0	0	0	0	0	30493	29689	0
1651053508610	50.752	-2.44	-998.936	-1.26	-0.14	0.35	174	258	34.5	0	0	0	0	0	0	0	0	0	0	0	0	0	0	0	0	0	0	32859	32340	0
1651053508620	28.304	0.976	-959.408	-0.98	-0.63	-4.48	175.5	256.5	36	0	0	0	0	0	0	0	0	0	0	0	0	0	0	0	0	0	0	35857	35730	0
1651053508630	68.808	-27.328	-996.984	-0.07	-0.35	-5.53	177	250.5	33	0	0	0	0	0	0	0	0	0	0	0	0	0	0	0	0	0	0	39708	40053	0
1651053508640	44.408	-17.08	-978.44	0.7	-0.28	0.91	174	252	34.5	0	0	0	0	0	0	0	0	0	0	0	0	0	0	0	0	0	0	44136	44814	0
1651053508650	55.632	-7.32	-1007.72	-0.84	-0.28	1.12	174	252	34.5	0	0	0	0	0	0	0	0	0	0	0	0	0	0	0	0	0	0	48703	49465	0
1651053508660	43.92	-6.832	-998.448	-0.98	-0.14	0.98	174	252	33	0	0	0	0	0	0	0	0	0	0	0	0	0	0	0	0	0	0	53389	54212	0
1651053508670	42.456	-5.368	-999.912	-0.77	-0.21	1.05	171	250.5	34.5	0	0	0	0	0	0	0	0	0	0	0	0	0	0	0	0	0	0	60156	61017	0
1651053508680	55.632	36.6	-1002.352	-1.05	-0.35	-4.83	168	250.5	33	0	0	0	0	0	0	0	0	0	0	0	0	0	0	0	0	0	0	68297	68955	0
1651053508690	68.32	-2.928	-968.68	0.28	-0.7	-8.19	175.5	255	33	0	0	0	0	0	0	0	0	0	0	0	0	0	0	0	0	0	0	78608	78677	0
1651053508700	53.192	-27.816	-976.488	-0.14	-0.14	-0.49	178.5	258	34.5	0	0	0	0	0	0	0	0	0	0	0	0	0	0	0	0	0	0	89279	88637	0
1651053508710	30.744	-2.44	-996.008	1.4	-0.35	0.21	177	256.5	34.5	0	0	0	0	0	0	0	0	0	0	0	0	0	0	0	0	0	0	101315	99943	0
1651053508720	-11.712	32.208	-999.912	-0.35	-0.49	-11.76	177	253.5	34.5	0	0	0	0	0	0	0	0	0	0	0	0	0	0	0	0	0	0	115710	113677	0
1651053508730	72.712	-25.864	-986.736	0.21	-0.35	-7.56	175.5	255	36	0	0	0	0	0	0	0	0	0	0	0	0	0	0	0	0	0	0	133053	130363	0
1651053508740	40.504	-37.088	-993.08	0.07	-0.42	-0.98	175.5	252	40.5	0	0	0	0	0	0	0	0	0	0	0	0	0	0	0	0	0	0	151504	148973	0
1651053508750	54.656	-7.32	-982.832	-0.21	-0.07	0.07	178.5	250.5	42	0	0	0	0	0	0	0	0	0	0	0	0	0	0	0	0	0	0	167078	166910	0
1651053508760	48.8	-7.32	-987.712	0.63	0	0.21	180	247.5	39	0	0	0	0	0	0	0	0	0	0	0	0	0	0	0	0	0	0	171527	180561	0
1651053508770	44.408	-14.152	-1000.888	0.42	-0.14	0.42	181.5	249	36	0	0	0	0	0	0	0	0	0	0	0	0	0	0	0	0	0	0	176306	188271	0
1651053508780	48.8	-11.712	-992.104	0.28	-0.21	-0.42	177	255	34.5	0	0	0	0	0	0	0	0	0	0	0	0	0	0	0	0	0	0	179657	189367	0
1651053508790	47.824	-6.344	-991.128	0.28	-0.42	-0.7	178.5	256.5	40.5	0	0	0	0	0	0	0	0	0	0	0	0	0	0	0	0	0	0	180266	189226	0
1651053508800	40.016	2.928	-998.936	0.84	-0.42	-1.61	178.5	249	36	0	0	0	0	0	0	0	0	0	0	0	0	0	0	0	0	0	0	180287	190052	0
1651053508810	60.512	15.616	-997.472	5.81	0.07	9.52	177	249	30	0	0	0	0	0	0	0	0	0	0	0	0	0	0	0	0	0	0	180622	191572	0
1651053508820	55.144	-5.368	-961.36	-0.63	-0.35	12.53	177	258	33	0	0	0	0	0	0	0	0	0	0	0	0	0	0	0	0	0	0	181411	193850	0
1651053508830	49.288	-15.128	-1005.28	2.1	-0.14	5.6	177	256.5	36	0	0	0	0	0	0	0	0	0	0	0	0	0	0	0	0	0	0	182439	196496	0
1651053508840	47.824	-8.296	-989.176	3.08	-0.63	3.99	174	250.5	36	0	0	0	0	0	0	0	0	0	0	0	0	0	0	0	0	0	0	183544	198768	0
1651053508850	2.928	-5.856	-1079.456	0.42	0.28	2.03	174	250.5	36	0	0	0	0	0	0	0	0	0	0	0	0	0	0	0	0	0	0	184506	201158	0
1651053508860	83.936	5.368	-904.264	-12.32	-0.49	14.07	172.5	252	36	0	0	0	0	0	0	0	0	0	0	0	0	0	0	0	0	0	0	185331	203059	0
1651053508870	195.688	136.152	-993.568	5.46	0.28	51.38	166.5	258	42	0	0	0	0	0	0	0	0	0	0	0	0	0	0	0	0	0	0	186032	204489	0
1651053508880	-159.576	-222.04	-990.152	8.12	1.19	10.01	163.5	259.5	40.5	0	0	0	0	0	0	0	0	0	0	0	0	0	0	0	0	0	0	186650	205607	0
1651053508890	-49.776	-129.32	-1060.912	9.8	1.19	-7.77	168	255	43.5	0	0	0	0	0	0	0	0	0	0	0	0	0	0	0	0	0	0	187279	206696	0
1651053508900	49.776	53.68	-981.856	-2.31	-0.63	5.53	172.5	259.5	45	0	0	0	0	0	0	0	0	0	0	0	0	0	0	0	0	0	0	187926	207848	0
1651053508910	-31.72	9.272	-1047.736	-2.87	0.21	-6.37	178.5	265.5	40.5	0	0	0	0	0	0	0	0	0	0	0	0	0	0	0	0	0	0	188718	209114	0
1651053508920	86.864	21.472	-1010.648	4.55	-0.56	2.03	175.5	256.5	40.5	0	0	0	0	0	0	0	0	0	0	0	0	0	0	0	0	0	0	189423	210378	0
1651053508930	66.368	-24.4	-983.808	2.24	-0.21	1.68	175.5	255	42	0	0	0	0	0	0	0	0	0	0	0	0	0	0	0	0	0	0	189957	211345	0
1651053508940	121.024	44.408	-1052.616	-1.05	0.07	20.3	171	259.5	39	0	0	0	0	0	0	0	0	0	0	0	0	0	0	0	0	0	0	190357	212148	0
1651053508950	65.392	-49.776	-1008.696	-2.66	-0.35	31.36	175.5	255	36	0	0	0	0	0	0	0	0	0	0	0	0	0	0	0	0	0	0	190581	212754	0
1651053508960	31.72	-44.408	-1001.864	-0.42	0.07	35.56	178.5	255	39	0	0	0	0	0	0	0	0	0	0	0	0	0	0	0	0	0	0	190736	212809	0
1651053508970	-38.064	-41.48	-1013.576	-0.98	0.42	15.89	175.5	262.5	39	0	0	0	0	0	0	0	0	0	0	0	0	0	0	0	0	0	0	190748	213018	0
1651053508980	26.352	-13.176	-1045.296	0.42	0.21	18.48	177	265.5	40.5	0	0	0	0	0	0	0	0	0	0	0	0	0	0	0	0	0	0	190711	213200	0
1651053508990	-1.464	-7.32	-1099.952	8.68	0.63	-3.22	172.5	265.5	37.5	0	0	0	0	0	0	0	0	0	0	0	0	0	0	0	0	0	0	190651	213334	0
1651053509000	38.064	-89.304	-1080.92	34.51	-1.05	-28.63	171	264	36	0	0	0	0	0	0	0	0	0	0	0	0	0	0	0	0	0	0	190589	213417	0
1651053509010	88.816	-101.992	-996.984	78.96	-2.87	-16.24	171	267	36	0	0	0	0	0	0	0	0	0	0	0	0	0	0	0	0	0	0	190507	213417	0
1651053509020	27.328	-179.096	-933.056	89.95	-0.21	2.52	171	270	28.5	0	0	0	0	0	0	0	0	0	0	0	0	0	0	0	0	0	0	190428	213423	0
1651053509030	82.96	-138.592	-851.56	60.62	1.12	19.6	183	268.5	22.5	0	0	0	0	0	0	0	0	0	0	0	0	0	0	0	0	0	0	190359	213462	0
1651053509040	-53.192	0	-784.704	9.52	2.1	26.81	195	264	21	0	0	0	0	0	0	0	0	0	0	0	0	0	0	0	0	0	0	190323	213562	0
1651053509050	51.728	81.984	-996.984	-31.78	2.24	23.45	195	262.5	24	0	0	0	0	0	0	0	0	0	0	0	0	0	0	0	0	0	0	190305	213689	0
1651053509061	32.208	54.168	-1071.16	-39.48	1.68	13.37	187.5	268.5	28.5	0	0	0	0	0	0	0	0	0	0	0	0	0	0	0	0	0	0	190298	213792	0
1651053509071	83.936	12.688	-1199.992	-11.76	-1.68	8.75	186	271.5	28.5	0	0	0	0	0	0	0	0	0	0	0	0	0	0	0	0	0	0	190335	213908	0
1651053509081	86.864	54.168	-1016.504	26.74	-1.82	4.27	187.5	270	24	0	0	0	0	0	0	0	0	0	0	0	0	0	0	0	0	0	0	190403	213986	0
1651053509091	38.552	21.472	-948.672	54.39	-1.61	0.42	190.5	268.5	25.5	0	0	0	0	0	0	0	0	0	0	0	0	0	0	0	0	0	0	190457	213997	0
1651053509101	17.08	12.688	-942.816	35.49	-1.61	-5.04	192	264	25.5	0	0	0	0	0	0	0	0	0	0	0	0	0	0	0	0	0	0	190543	214021	0
1651053509111	63.928	-120.536	-911.096	1.96	-0.28	-0.21	192	265.5	24	0	0	0	0	0	0	0	0	0	0	0	0	0	0	0	0	0	0	190672	214047	0
1651053509121	61.976	-41.968	-1012.112	-9.24	0	-2.94	195	264	25.5	0	0	0	0	0	0	0	0	0	0	0	0	0	0	0	0	0	0	190776	214024	0
1651053509131	-7.32	-84.912	-1009.672	-2.31	-0.28	-0.77	193.5	262.5	27	0	0	0	0	0	0	0	0	0	0	0	0	0	0	0	0	0	0	190837	213999	0
1651053509141	25.864	-114.68	-990.64	1.47	-0.56	-1.68	187.5	270	28.5	0	0	0	0	0	0	0	0	0	0	0	0	0	0	0	0	0	0	190838	213976	0
1651053509151	-2.44	-241.56	-1136.552	-10.92	0.21	-15.75	186	268.5	28.5	0	0	0	0	0	0	0	0	0	0	0	0	0	0	0	0	0	0	190806	213967	0
1651053509161	128.344	-144.936	-1037.976	-34.02	-1.47	-12.95	195	265.5	27	0	0	0	0	0	0	0	0	0	0	0	0	0	0	0	0	0	0	190648	213838	0
1651053509171	121.512	-224.48	-1034.072	-25.13	0.07	-0.42	195	264	19.5	0	0	0	0	0	0	0	0	0	0	0	0	0	0	0	0	0	0	190503	213681	0
1651053509181	103.456	-169.824	-1084.824	-5.04	-1.19	0.28	190.5	264	19.5	0	0	0	0	0	0	0	0	0	0	0	0	0	0	0	0	0	0	190468	213549	0
1651053509191	30.744	19.032	-959.408	18.97	-2.31	-5.95	193.5	268.5	24	0	0	0	0	0	0	0	0	0	0	0	0	0	0	0	0	0	0	190388	213395	0
1651053509201	142.008	-13.176	-942.328	31.92	-5.32	-0.84	192	265.5	24	0	0	0	0	0	0	0	0	0	0	0	0	0	0	0	0	0	0	190353	213102	0
1651053509211	17.568	-27.328	-942.328	38.36	1.4	-1.82	189	261	24	0	0	0	0	0	0	0	0	0	0	0	0	0	0	0	0	0	0	190205	212807	0
1651053509221	-116.632	177.144	-857.904	36.47	-0.91	-5.32	196.5	261	21	0	0	0	0	0	0	0	0	0	0	0	0	0	0	0	0	0	0	190122	212587	0
1651053509231	246.928	-42.944	-1037	23.03	-1.89	0.63	195	262.5	18	0	0	0	0	0	0	0	0	0	0	0	0	0	0	0	0	0	0	190053	212498	0
1651053509241	321.104	-45.384	-1196.088	7.7	-3.92	-7.21	195	264	16.5	0	0	0	0	0	0	0	0	0	0	0	0	0	0	0	0	0	0	189884	212282	0
1651053509251	-40.016	-8.296	-890.112	-18.55	1.05	11.83	199.5	261	16.5	0	0	0	0	0	0	0	0	0	0	0	0	0	0	0	0	0	0	189707	212167	0
1651053509261	-51.24	18.544	-967.704	-30.38	2.59	4.97	201	261	15	0	0	0	0	0	0	0	0	0	0	0	0	0	0	0	0	0	0	189571	212197	0
1651053509271	-82.96	60.024	-947.696	-23.94	1.54	8.75	202.5	262.5	22.5	0	0	0	0	0	0	0	0	0	0	0	0	0	0	0	0	0	0	189534	212295	0
1651053509281	10.248	41.48	-1017.48	-5.88	-1.26	6.65	198	262.5	27	0	0	0	0	0	0	0	0	0	0	0	0	0	0	0	0	0	0	189508	212439	0
1651053509291	-61.488	66.368	-955.504	7.14	-0.21	3.99	193.5	264	21	0	0	0	0	0	0	0	0	0	0	0	0	0	0	0	0	0	0	189530	212596	0
1651053509301	78.08	-107.848	-961.848	-1.47	-0.21	5.11	193.5	264	18	0	0	0	0	0	0	0	0	0	0	0	0	0	0	0	0	0	0	189552	212759	0
1651053509311	108.824	-79.056	-1058.472	-5.95	0.56	6.51	193.5	264	18	0	0	0	0	0	0	0	0	0	0	0	0	0	0	0	0	0	0	189603	212971	0
1651053509321	9.272	-43.432	-949.16	-2.24	0.14	4.76	193.5	267	16.5	0	0	0	0	0	0	0	0	0	0	0	0	0	0	0	0	0	0	189669	213241	0
1651053509331	41.48	-55.632	-997.472	-3.71	0.07	3.92	195	267	24	0	0	0	0	0	0	0	0	0	0	0	0	0	0	0	0	0	0	189922	213678	0
1651053509341	99.064	9.272	-972.096	-2.38	-0.14	3.85	198	265.5	25.5	0	0	0	0	0	0	0	0	0	0	0	0	0	0	0	0	0	0	190204	214065	0
1651053509351	-107.848	-94.672	-1059.448	17.29	0.84	-19.32	192	264	22.5	0	0	0	0	0	0	0	0	0	0	0	0	0	0	0	0	0	0	190464	214492	0
1651053509361	36.6	-38.552	-1039.44	27.58	-1.05	-12.95	198	265.5	24	0	0	0	0	0	0	0	0	0	0	0	0	0	0	0	0	0	0	190660	214798	0
1651053509371	61.488	-73.2	-991.616	19.32	-1.68	-11.62	201	267	22.5	0	0	0	0	0	0	0	0	0	0	0	0	0	0	0	0	0	0	190809	215019	0
1651053509381	46.848	-119.56	-976	3.85	-0.77	-7	199.5	262.5	18	0	0	0	0	0	0	0	0	0	0	0	0	0	0	0	0	0	0	190896	215258	0
1651053509391	91.744	-40.992	-996.984	-16.52	1.05	1.54	201	259.5	18	0	0	0	0	0	0	0	0	0	0	0	0	0	0	0	0	0	0	190954	215509	0
1651053509401	32.208	-60.512	-1048.224	-12.81	-0.14	2.45	196.5	262.5	16.5	0	0	0	0	0	0	0	0	0	0	0	0	0	0	0	0	0	0	190927	215789	0
1651053509411	16.104	-87.84	-1005.768	-3.01	-0.28	0.98	195	267	19.5	0	0	0	0	0	0	0	0	0	0	0	0	0	0	0	0	0	0	190966	215945	0
1651053509421	38.552	-67.832	-987.224	-0.63	-0.42	0.7	195	268.5	19.5	0	0	0	0	0	0	0	0	0	0	0	0	0	0	0	0	0	0	190947	216020	0
1651053509431	42.944	-75.152	-992.592	-1.47	-0.07	0.07	202.5	264	21	0	0	0	0	0	0	0	0	0	0	0	0	0	0	0	0	0	0	190970	216099	0
1651053509441	37.088	-70.272	-1009.672	-1.82	-0.07	-0.07	202.5	267	21	0	0	0	0	0	0	0	0	0	0	0	0	0	0	0	0	0	0	190896	216165	0
1651053509451	28.792	-56.12	-998.448	2.66	-0.42	-2.24	199.5	264	21	0	0	0	0	0	0	0	0	0	0	0	0	0	0	0	0	0	0	190830	216229	0
1651053509461	44.896	-58.072	-992.104	6.09	-0.56	-2.38	193.5	256.5	24	0	0	0	0	0	0	0	0	0	0	0	0	0	0	0	0	0	0	190835	216334	0
1651053509471	37.088	-53.192	-1015.528	7.56	-0.42	-1.75	192	262.5	22.5	0	0	0	0	0	0	0	0	0	0	0	0	0	0	0	0	0	0	190829	216314	0
1651053509481	48.312	-73.688	-993.08	9.8	-0.63	-1.61	198	268.5	22.5	0	0	0	0	0	0	0	0	0	0	0	0	0	0	0	0	0	0	190913	216289	0
1651053509491	61.976	-58.56	-950.136	0.7	-0.42	-0.07	199.5	268.5	24	0	0	0	0	0	0	0	0	0	0	0	0	0	0	0	0	0	0	191004	216204	0
1651053509501	59.048	-62.464	-987.712	-5.74	-0.07	0.07	202.5	262.5	18	0	0	0	0	0	0	0	0	0	0	0	0	0	0	0	0	0	0	191070	216237	0
1651053509511	12.688	-84.912	-1025.776	-4.2	-0.28	0.98	202.5	258	15	0	0	0	0	0	0	0	0	0	0	0	0	0	0	0	0	0	0	191096	216386	0
1651053509521	74.664	-37.088	-1009.672	1.61	-0.42	4.27	196.5	259.5	18	0	0	0	0	0	0	0	0	0	0	0	0	0	0	0	0	0	0	191119	216577	0
1651053509531	45.872	-66.856	-977.464	4.76	-0.21	3.29	199.5	265.5	19.5	0	0	0	0	0	0	0	0	0	0	0	0	0	0	0	0	0	0	191088	216759	0
1651053509541	27.328	-78.568	-990.152	1.33	-0.14	1.4	207	261	22.5	0	0	0	0	0	0	0	0	0	0	0	0	0	0	0	0	0	0	191162	216975	0
1651053509551	46.848	-64.416	-1007.232	-1.54	-0.07	0.49	204	259.5	18	0	0	0	0	0	0	0	0	0	0	0	0	0	0	0	0	0	0	191168	216977	0
1651053509561	53.192	-67.832	-1005.768	-2.1	0.14	0.14	196.5	264	15	0	0	0	0	0	0	0	0	0	0	0	0	0	0	0	0	0	0	191001	216911	0
1651053509571	57.584	-64.904	-1000.4	-2.17	-0.07	0.07	192	265.5	18	0	0	0	0	0	0	0	0	0	0	0	0	0	0	0	0	0	0	190735	216809	0
1651053509581	55.632	-67.832	-995.032	0.49	-0.28	0.56	198	265.5	24	0	0	0	0	0	0	0	0	0	0	0	0	0	0	0	0	0	0	190463	216667	0
1651053509591	39.528	-82.472	-987.712	0.91	-0.35	0.84	198	259.5	22.5	0	0	0	0	0	0	0	0	0	0	0	0	0	0	0	0	0	0	190161	216378	0
1651053509601	63.928	-82.472	-1007.232	3.92	-0.14	2.24	196.5	264	18	0	0	0	0	0	0	0	0	0	0	0	0	0	0	0	0	0	0	189923	216168	0
1651053509611	42.456	-65.392	-1013.576	2.87	-0.14	4.48	195	264	15	0	0	0	0	0	0	0	0	0	0	0	0	0	0	0	0	0	0	189720	215887	0
1651053509621	96.624	55.632	-958.92	-1.47	-0.21	0.77	198	258	15	0	0	0	0	0	0	0	0	0	0	0	0	0	0	0	0	0	0	189576	215770	0
1651053509631	1.952	-18.056	-1036.024	19.46	-0.28	-4.55	199.5	259.5	16.5	0	0	0	0	0	0	0	0	0	0	0	0	0	0	0	0	0	0	189456	215807	0
1651053509641	-7.808	-37.088	-1008.208	29.68	-1.05	-14.28	198	264	19.5	0	0	0	0	0	0	0	0	0	0	0	0	0	0	0	0	0	0	189484	215486	0
1651053509651	59.048	-61.976	-936.96	21.63	-1.4	-11.34	199.5	262.5	19.5	0	0	0	0	0	0	0	0	0	0	0	0	0	0	0	0	0	0	189463	215347	0
1651053509661	29.768	-202.52	-941.84	5.11	-1.96	-7.42	202.5	261	18	0	0	0	0	0	0	0	0	0	0	0	0	0	0	0	0	0	0	189521	215648	0
1651053509671	70.76	-188.856	-946.72	-17.29	-0.14	-2.59	201	262.5	18	0	0	0	0	0	0	0	0	0	0	0	0	0	0	0	0	0	0	189617	216012	0
1651053509681	37.576	-70.272	-1056.032	-19.32	0.35	-1.12	201	265.5	18	0	0	0	0	0	0	0	0	0	0	0	0	0	0	0	0	0	0	189690	216281	0
1651053509691	26.84	-96.136	-992.104	-5.18	-0.42	1.89	199.5	265.5	19.5	0	0	0	0	0	0	0	0	0	0	0	0	0	0	0	0	0	0	189644	216310	0
1651053509701	32.208	-55.144	-1013.576	-2.52	-0.14	0.49	199.5	262.5	22.5	0	0	0	0	0	0	0	0	0	0	0	0	0	0	0	0	0	0	189670	216702	0
1651053509711	53.192	-46.848	-993.568	0.49	-0.21	3.5	202.5	261	21	0	0	0	0	0	0	0	0	0	0	0	0	0	0	0	0	0	0	189698	216655	0
1651053509721	47.336	-64.904	-995.52	1.33	0.07	3.22	204	259.5	18	0	0	0	0	0	0	0	0	0	0	0	0	0	0	0	0	0	0	189741	217006	0
1651053509731	56.608	-77.104	-994.056	1.82	-0.21	2.66	204	258	21	0	0	0	0	0	0	0	0	0	0	0	0	0	0	0	0	0	0	189805	217250	0
1651053509741	55.632	-92.232	-976	-0.91	-0.21	0.98	204	258	21	0	0	0	0	0	0	0	0	0	0	0	0	0	0	0	0	0	0	189733	217212	0
1651053509751	74.664	5.856	-1009.672	5.04	-1.05	-3.43	202.5	259.5	19.5	0	0	0	0	0	0	0	0	0	0	0	0	0	0	0	0	0	0	189612	217045	0
1651053509761	43.432	24.888	-973.072	24.36	-0.7	-7.98	199.5	258	19.5	0	0	0	0	0	0	0	0	0	0	0	0	0	0	0	0	0	0	189491	216820	0
1651053509771	41.968	-93.208	-901.824	26.39	-2.31	-10.85	204	255	16.5	0	0	0	0	0	0	0	0	0	0	0	0	0	0	0	0	0	0	189404	216793	0
1651053509781	40.504	-142.984	-882.792	8.75	-0.91	-10.01	207	258	16.5	0	0	0	0	0	0	0	0	0	0	0	0	0	0	0	0	0	0	189314	216697	0
1651053509791	45.384	-182.024	-935.496	-12.39	-0.42	-2.66	204	262.5	16.5	0	0	0	0	0	0	0	0	0	0	0	0	0	0	0	0	0	0	189240	216551	0
1651053509801	0.976	-95.648	-1030.656	-14.42	0.35	0.28	196.5	259.5	16.5	0	0	0	0	0	0	0	0	0	0	0	0	0	0	0	0	0	0	188785	215744	0
1651053509811	11.712	-129.808	-1004.792	-6.09	-0.63	-0.84	198	259.5	21	0	0	0	0	0	0	0	0	0	0	0	0	0	0	0	0	0	0	188523	215565	0
1651053509821	38.552	-86.864	-1000.888	-4.62	-0.35	1.19	199.5	259.5	27	0	0	0	0	0	0	0	0	0	0	0	0	0	0	0	0	0	0	188377	215777	0
1651053509831	73.2	-78.568	-979.416	-1.4	-0.07	2.87	202.5	258	22.5	0	0	0	0	0	0	0	0	0	0	0	0	0	0	0	0	0	0	188469	216319	0
1651053509841	69.784	-83.448	-983.808	-2.94	0	1.68	208.5	258	15	0	0	0	0	0	0	0	0	0	0	0	0	0	0	0	0	0	0	188882	217121	0
1651053509851	43.92	-84.912	-1001.376	-3.08	0.07	2.45	208.5	256.5	15	0	0	0	0	0	0	0	0	0	0	0	0	0	0	0	0	0	0	188598	216335	0
1651053509861	43.432	-67.832	-1007.72	1.19	-0.14	0.84	205.5	258	16.5	0	0	0	0	0	0	0	0	0	0	0	0	0	0	0	0	0	0	188303	215744	0
1651053509871	107.36	22.448	-985.76	6.16	0.07	-0.14	204	259.5	18	0	0	0	0	0	0	0	0	0	0	0	0	0	0	0	0	0	0	188252	215678	0
1651053509881	55.144	-37.576	-996.496	25.13	0.35	2.31	202.5	255	18	0	0	0	0	0	0	0	0	0	0	0	0	0	0	0	0	0	0	188212	215773	0
1651053509891	24.4	-136.152	-875.472	15.75	-0.91	-3.08	204	255	16.5	0	0	0	0	0	0	0	0	0	0	0	0	0	0	0	0	0	0	188144	215830	0
1651053509902	71.736	-22.448	-1012.6	-23.59	0.28	0.77	205.5	262.5	18	0	0	0	0	0	0	0	0	0	0	0	0	0	0	0	0	0	0	188111	215888	0
1651053509912	30.744	-89.304	-1011.136	-28.07	0.14	3.01	202.5	262.5	18	0	0	0	0	0	0	0	0	0	0	0	0	0	0	0	0	0	0	187991	216000	0
1651053509922	48.8	-80.032	-1008.696	-21.49	-0.42	0.07	199.5	256.5	16.5	0	0	0	0	0	0	0	0	0	0	0	0	0	0	0	0	0	0	187996	216220	0
1651053509932	29.28	-80.52	-995.032	-8.82	-0.07	3.78	195	258	22.5	0	0	0	0	0	0	0	0	0	0	0	0	0	0	0	0	0	0	188078	216562	0
1651053509942	23.424	-87.84	-1021.872	0.35	0	4.13	193.5	265.5	22.5	0	0	0	0	0	0	0	0	0	0	0	0	0	0	0	0	0	0	188157	216709	0
1651053509952	44.408	-77.104	-994.544	0.07	-0.42	2.52	199.5	259.5	21	0	0	0	0	0	0	0	0	0	0	0	0	0	0	0	0	0	0	188144	216745	0
1651053509962	38.552	-65.88	-981.856	0.07	-0.28	2.03	198	255	19.5	0	0	0	0	0	0	0	0	0	0	0	0	0	0	0	0	0	0	188135	216728	0
1651053509972	130.784	18.056	-1104.344	2.8	0.98	18.9	192	259.5	21	0	0	0	0	0	0	0	0	0	0	0	0	0	0	0	0	0	0	188097	216745	0
1651053509982	26.352	-83.936	-1006.744	-7.77	0.49	7.77	190.5	261	19.5	0	0	0	0	0	0	0	0	0	0	0	0	0	0	0	0	0	0	188045	216665	0
1651053509992	43.92	-50.264	-977.464	-6.65	0.21	7.42	196.5	256.5	21	0	0	0	0	0	0	0	0	0	0	0	0	0	0	0	0	0	0	187974	216559	0
1651053510002	68.808	-68.32	-964.776	-2.52	-0.07	5.81	199.5	258	28.5	0	0	0	0	0	0	0	0	0	0	0	0	0	0	0	0	0	0	187909	216447	0
1651053510012	40.504	-71.248	-992.104	-6.65	0.35	7.07	199.5	259.5	25.5	0	0	0	0	0	0	0	0	0	0	0	0	0	0	0	0	0	0	187770	216201	0
1651053510022	54.168	-65.392	-961.848	-13.16	0.14	8.05	201	261	25.5	0	0	0	0	0	0	0	0	0	0	0	0	0	0	0	0	0	0	187688	216038	0
1651053510032	47.824	-79.544	-1003.816	-22.19	0.77	11.55	198	265.5	22.5	0	0	0	0	0	0	0	0	0	0	0	0	0	0	0	0	0	0	187676	216092	0
1651053510042	42.944	-55.632	-967.704	-29.19	0.63	10.15	196.5	262.5	21	0	0	0	0	0	0	0	0	0	0	0	0	0	0	0	0	0	0	187700	216248	0
1651053510052	41.48	-81.496	-999.912	-32.41	0.49	10.36	193.5	256.5	28.5	0	0	0	0	0	0	0	0	0	0	0	0	0	0	0	0	0	0	187696	216348	0
1651053510062	17.08	-102.968	-1002.84	-33.88	0.21	12.04	195	252	34.5	0	0	0	0	0	0	0	0	0	0	0	0	0	0	0	0	0	0	187635	216277	0
1651053510072	264.496	92.232	-929.152	-41.3	1.47	44.1	193.5	261	31.5	0	0	0	0	0	0	0	0	0	0	0	0	0	0	0	0	0	0	187497	216021	0
1651053510082	77.104	-34.648	-1014.064	-64.12	2.1	32.34	181.5	268.5	31.5	0	0	0	0	0	0	0	0	0	0	0	0	0	0	0	0	0	0	187415	215919	0
1651053510092	-215.208	-71.736	-995.032	-72.87	2.66	38.29	174	262.5	36	0	0	0	0	0	0	0	0	0	0	0	0	0	0	0	0	0	0	187389	215894	0
1651053510102	183.488	-5.368	-1405.44	-28.7	4.48	120.75	168	264	37.5	0	0	0	0	0	0	0	0	0	0	0	0	0	0	0	0	0	0	187354	215777	0
1651053510112	-12.688	-45.384	-813.496	22.54	2.03	35.07	166.5	276	40.5	0	0	0	0	0	0	0	0	0	0	0	0	0	0	0	0	0	0	187336	215708	0
1651053510122	0	-96.624	-975.024	22.05	0.28	15.26	171	282	40.5	0	0	0	0	0	0	0	0	0	0	0	0	0	0	0	0	0	0	187380	215814	0
1651053510132	-32.696	-116.632	-1035.536	14	-0.35	6.16	172.5	282	39	0	0	0	0	0	0	0	0	0	0	0	0	0	0	0	0	0	0	187480	216059	0
1651053510142	1.464	-41.968	-996.008	2.73	-0.56	0.7	169.5	279	36	0	0	0	0	0	0	0	0	0	0	0	0	0	0	0	0	0	0	187607	216309	0
1651053510152	26.84	-17.08	-940.376	-9.17	0.14	-2.52	174	279	36	0	0	0	0	0	0	0	0	0	0	0	0	0	0	0	0	0	0	187734	216468	0
1651053510162	35.624	-31.72	-1002.84	-14.98	0	-2.03	171	280.5	43.5	0	0	0	0	0	0	0	0	0	0	0	0	0	0	0	0	0	0	187743	216318	0
1651053510172	40.016	4.392	-1023.336	-10.78	0	-1.75	168	282	48	0	0	0	0	0	0	0	0	0	0	0	0	0	0	0	0	0	0	187764	216186	0
1651053510182	37.576	6.344	-988.2	-4.69	0.35	-2.17	165	282	43.5	0	0	0	0	0	0	0	0	0	0	0	0	0	0	0	0	0	0	187724	215883	0
1651053510192	36.112	0.976	-1021.872	2.87	-0.56	-4.48	169.5	285	40.5	0	0	0	0	0	0	0	0	0	0	0	0	0	0	0	0	0	0	187629	215384	0
1651053510202	63.44	13.176	-995.52	8.4	-0.7	-3.08	171	280.5	40.5	0	0	0	0	0	0	0	0	0	0	0	0	0	0	0	0	0	0	187561	215016	0
1651053510212	53.68	-6.832	-952.088	6.79	0.07	-2.66	166.5	280.5	46.5	0	0	0	0	0	0	0	0	0	0	0	0	0	0	0	0	0	0	187534	214753	0
1651053510222	35.136	20.984	-980.88	0.56	-0.63	-1.68	171	277.5	43.5	0	0	0	0	0	0	0	0	0	0	0	0	0	0	0	0	0	0	187616	214803	0
1651053510232	43.92	-3.416	-999.912	-7.84	0.07	-0.56	174	279	40.5	0	0	0	0	0	0	0	0	0	0	0	0	0	0	0	0	0	0	187850	215189	0
1651053510242	23.424	24.4	-976.976	-8.33	-0.28	0.07	166.5	280.5	39	0	0	0	0	0	0	0	0	0	0	0	0	0	0	0	0	0	0	188209	215815	0
1651053510252	40.504	-5.856	-1053.104	-2.94	0	-0.07	168	282	37.5	0	0	0	0	0	0	0	0	0	0	0	0	0	0	0	0	0	0	188380	215936	0
1651053510262	38.552	13.176	-994.056	1.47	-0.35	-0.28	169.5	277.5	43.5	0	0	0	0	0	0	0	0	0	0	0	0	0	0	0	0	0	0	189043	216787	0
1651053510272	35.624	-27.816	-989.664	4.34	-0.35	-1.12	169.5	274.5	42	0	0	0	0	0	0	0	0	0	0	0	0	0	0	0	0	0	0	189449	217247	0
1651053510282	43.92	-5.368	-983.32	0.84	-0.35	0.07	169.5	274.5	40.5	0	0	0	0	0	0	0	0	0	0	0	0	0	0	0	0	0	0	189758	217480	0
1651053510292	44.896	-1.952	-1000.4	0	-0.35	0.28	169.5	282	43.5	0	0	0	0	0	0	0	0	0	0	0	0	0	0	0	0	0	0	189720	217230	0
1651053510302	53.68	-10.248	-989.176	1.89	-0.28	0.56	169.5	283.5	43.5	0	0	0	0	0	0	0	0	0	0	0	0	0	0	0	0	0	0	189555	216809	0
1651053510312	57.584	-19.032	-998.448	0.35	-0.35	0.35	174	280.5	43.5	0	0	0	0	0	0	0	0	0	0	0	0	0	0	0	0	0	0	189445	216559	0
1651053510322	38.552	-15.616	-989.664	-0.07	-0.28	0.35	168	279	42	0	0	0	0	0	0	0	0	0	0	0	0	0	0	0	0	0	0	189314	216226	0
1651053510332	50.752	-13.176	-997.96	0	-0.35	0.49	160.5	276	42	0	0	0	0	0	0	0	0	0	0	0	0	0	0	0	0	0	0	189156	215917	0
1651053510342	44.408	-15.128	-994.544	0.21	-0.21	0.42	162	276	42	0	0	0	0	0	0	0	0	0	0	0	0	0	0	0	0	0	0	189055	215722	0
1651053510352	40.992	-9.272	-994.056	0.84	-0.21	0.56	171	276	48	0	0	0	0	0	0	0	0	0	0	0	0	0	0	0	0	0	0	188990	215565	0
1651053510362	48.312	-15.616	-996.496	0.98	-0.35	1.26	172.5	280.5	48	0	0	0	0	0	0	0	0	0	0	0	0	0	0	0	0	0	0	188941	215417	0
1651053510372	48.8	-16.104	-990.64	0.28	-0.21	1.26	171	280.5	46.5	0	0	0	0	0	0	0	0	0	0	0	0	0	0	0	0	0	0	188948	215298	0
1651053510382	43.432	-9.76	-995.52	-1.61	-0.35	0.91	166.5	276	48	0	0	0	0	0	0	0	0	0	0	0	0	0	0	0	0	0	0	188922	215221	0
1651053510392	52.704	-14.64	-997.96	-1.82	-0.28	0.84	165	274.5	42	0	0	0	0	0	0	0	0	0	0	0	0	0	0	0	0	0	0	188922	215074	0
1651053510402	47.336	-8.784	-997.96	-1.75	-0.07	0.56	165	280.5	45	0	0	0	0	0	0	0	0	0	0	0	0	0	0	0	0	0	0	188959	214896	0
1651053510412	45.872	-10.736	-996.496	-0.35	-0.21	0.35	168	283.5	49.5	0	0	0	0	0	0	0	0	0	0	0	0	0	0	0	0	0	0	189044	214782	0
1651053510422	37.088	-12.2	-999.912	0.63	-0.21	0.42	165	280.5	40.5	0	0	0	0	0	0	0	0	0	0	0	0	0	0	0	0	0	0	189068	214501	0
1651053510432	64.904	-28.792	-1006.744	2.66	-0.07	0.35	169.5	276	37.5	0	0	0	0	0	0	0	0	0	0	0	0	0	0	0	0	0	0	189051	214176	0
1651053510442	-3.416	-12.688	-1107.76	4.13	-0.14	-0.28	172.5	277.5	40.5	0	0	0	0	0	0	0	0	0	0	0	0	0	0	0	0	0	0	189075	213966	0
1651053510452	167.384	-95.648	-951.6	0.63	-0.49	0.7	166.5	283.5	43.5	0	0	0	0	0	0	0	0	0	0	0	0	0	0	0	0	0	0	188930	213651	0
1651053510462	-118.584	146.4	-839.848	-4.55	-1.05	1.12	166.5	283.5	40.5	0	0	0	0	0	0	0	0	0	0	0	0	0	0	0	0	0	0	188830	213455	0
1651053510472	6.832	-34.16	-1050.176	4.2	0.56	-0.98	168	283.5	36	0	0	0	0	0	0	0	0	0	0	0	0	0	0	0	0	0	0	188938	213700	0
1651053510482	91.744	-17.08	-961.848	-2.45	-0.14	0.63	169.5	283.5	45	0	0	0	0	0	0	0	0	0	0	0	0	0	0	0	0	0	0	189075	213864	0
1651053510492	16.592	-27.328	-1018.456	-0.91	-0.84	0.56	166.5	280.5	52.5	0	0	0	0	0	0	0	0	0	0	0	0	0	0	0	0	0	0	189119	213929	0
1651053510502	56.12	4.88	-958.432	-1.26	-0.77	0.56	168	280.5	51	0	0	0	0	0	0	0	0	0	0	0	0	0	0	0	0	0	0	189147	214016	0
1651053510512	36.6	-6.832	-1012.6	0	0.14	0.07	165	280.5	48	0	0	0	0	0	0	0	0	0	0	0	0	0	0	0	0	0	0	189203	214163	0
1651053510522	60.512	-4.88	-969.168	-0.91	-0.21	0.49	163.5	279	48	0	0	0	0	0	0	0	0	0	0	0	0	0	0	0	0	0	0	189286	214358	0
1651053510532	35.624	1.464	-1004.792	-0.56	-0.21	0.56	168	280.5	45	0	0	0	0	0	0	0	0	0	0	0	0	0	0	0	0	0	0	189426	214578	0
1651053510542	41.968	-9.272	-1001.864	0.21	-0.28	0.35	166.5	283.5	37.5	0	0	0	0	0	0	0	0	0	0	0	0	0	0	0	0	0	0	189517	214747	0
1651053510552	57.096	-6.344	-992.104	0.07	-0.35	0.35	166.5	277.5	37.5	0	0	0	0	0	0	0	0	0	0	0	0	0	0	0	0	0	0	189603	214917	0
1651053510562	49.776	-11.712	-998.448	0.49	-0.28	0.49	165	276	42	0	0	0	0	0	0	0	0	0	0	0	0	0	0	0	0	0	0	189655	215048	0
1651053510572	52.216	-15.616	-995.52	1.19	-0.21	0.42	163.5	277.5	42	0	0	0	0	0	0	0	0	0	0	0	0	0	0	0	0	0	0	189725	215039	0
1651053510582	56.12	-14.64	-992.592	0.7	-0.35	0.49	168	279	43.5	0	0	0	0	0	0	0	0	0	0	0	0	0	0	0	0	0	0	189660	214980	0
1651053510592	41.968	-16.104	-998.448	0.84	-0.21	0.35	172.5	279	46.5	0	0	0	0	0	0	0	0	0	0	0	0	0	0	0	0	0	0	189628	214880	0
1651053510602	30.256	-5.856	-941.84	-0.91	-0.91	-0.07	172.5	279	46.5	0	0	0	0	0	0	0	0	0	0	0	0	0	0	0	0	0	0	189555	214664	0
1651053510612	36.112	-7.808	-1009.672	0.35	-0.28	2.94	171	279	42	0	0	0	0	0	0	0	0	0	0	0	0	0	0	0	0	0	0	189411	214346	0
1651053510622	23.912	-39.04	-996.984	1.82	-0.35	-0.7	172.5	280.5	34.5	0	0	0	0	0	0	0	0	0	0	0	0	0	0	0	0	0	0	189306	214066	0
1651053510632	61.976	-5.368	-989.664	0.21	-0.21	0.56	175.5	282	43.5	0	0	0	0	0	0	0	0	0	0	0	0	0	0	0	0	0	0	189177	213820	0
1651053510642	33.672	-18.056	-999.424	0.91	-0.28	0.42	171	282	52.5	0	0	0	0	0	0	0	0	0	0	0	0	0	0	0	0	0	0	189107	213586	0
1651053510652	49.288	-7.808	-985.272	0.91	-0.21	0.42	168	283.5	46.5	0	0	0	0	0	0	0	0	0	0	0	0	0	0	0	0	0	0	188991	213367	0
1651053510662	49.288	-20.496	-1010.16	-0.28	-0.28	1.19	172.5	283.5	40.5	0	0	0	0	0	0	0	0	0	0	0	0	0	0	0	0	0	0	188906	213222	0
1651053510672	49.776	-11.712	-978.44	0.28	-0.35	0.63	175.5	279	46.5	0	0	0	0	0	0	0	0	0	0	0	0	0	0	0	0	0	0	188823	213180	0
1651053510682	43.92	-15.616	-1009.672	-1.82	-0.14	0.35	169.5	274.5	43.5	0	0	0	0	0	0	0	0	0	0	0	0	0	0	0	0	0	0	188773	213153	0
1651053510692	52.216	-2.928	-995.032	-0.63	-0.21	0.84	169.5	280.5	40.5	0	0	0	0	0	0	0	0	0	0	0	0	0	0	0	0	0	0	188741	213091	0
1651053510702	49.776	-9.272	-993.08	0.28	-0.28	0.56	168	279	48	0	0	0	0	0	0	0	0	0	0	0	0	0	0	0	0	0	0	188709	213064	0
1651053510712	42.456	-13.176	-992.592	0.98	-0.28	0.49	171	279	45	0	0	0	0	0	0	0	0	0	0	0	0	0	0	0	0	0	0	188660	213004	0
1651053510722	50.752	-12.688	-993.568	0.77	-0.21	0.35	171	280.5	42	0	0	0	0	0	0	0	0	0	0	0	0	0	0	0	0	0	0	188647	213015	0
1651053510732	51.728	-13.664	-991.128	0.07	-0.28	0.35	163.5	277.5	42	0	0	0	0	0	0	0	0	0	0	0	0	0	0	0	0	0	0	188617	212994	0
1651053510743	53.192	-17.08	-995.52	-0.21	-0.21	0.28	165	280.5	39	0	0	0	0	0	0	0	0	0	0	0	0	0	0	0	0	0	0	188580	212975	0
1651053510753	48.312	-14.152	-989.176	-0.42	-0.21	0.28	169.5	280.5	39	0	0	0	0	0	0	0	0	0	0	0	0	0	0	0	0	0	0	188550	212967	0
1651053510763	59.536	-7.808	-992.104	-0.42	-0.28	0.35	169.5	280.5	40.5	0	0	0	0	0	0	0	0	0	0	0	0	0	0	0	0	0	0	188531	212970	0
1651053510773	43.432	-18.544	-996.496	-0.07	-0.21	0.35	168	280.5	46.5	0	0	0	0	0	0	0	0	0	0	0	0	0	0	0	0	0	0	188505	212949	0
1651053510783	54.656	-5.856	-999.424	-0.07	-0.28	0.35	165	283.5	43.5	0	0	0	0	0	0	0	0	0	0	0	0	0	0	0	0	0	0	188460	212927	0
1651053510793	43.92	-8.296	-1000.4	0.21	-0.28	0.35	168	285	42	0	0	0	0	0	0	0	0	0	0	0	0	0	0	0	0	0	0	188394	212910	0
1651053510803	50.264	-18.544	-994.056	-0.21	-0.35	0.35	169.5	279	46.5	0	0	0	0	0	0	0	0	0	0	0	0	0	0	0	0	0	0	188330	212917	0
1651053510813	49.288	-13.664	-998.936	-0.14	-0.21	0.28	168	279	45	0	0	0	0	0	0	0	0	0	0	0	0	0	0	0	0	0	0	188270	212907	0
1651053510823	43.432	-4.392	-997.96	-0.42	-0.28	0.28	165	283.5	40.5	0	0	0	0	0	0	0	0	0	0	0	0	0	0	0	0	0	0	188215	212888	0
1651053510833	52.216	-11.224	-989.664	-0.07	-0.28	0.35	162	283.5	45	0	0	0	0	0	0	0	0	0	0	0	0	0	0	0	0	0	0	188148	212845	0
1651053510843	57.584	-6.344	-986.248	0.42	-0.14	0.35	163.5	276	45	0	0	0	0	0	0	0	0	0	0	0	0	0	0	0	0	0	0	188106	212789	0
1651053510853	46.848	-11.712	-994.056	0.28	-0.21	0.35	166.5	276	45	0	0	0	0	0	0	0	0	0	0	0	0	0	0	0	0	0	0	188065	212761	0
1651053510863	45.872	-9.76	-993.568	0.07	-0.28	0.35	169.5	279	45	0	0	0	0	0	0	0	0	0	0	0	0	0	0	0	0	0	0	188033	212721	0
1651053510873	46.848	-9.272	-992.104	-0.14	-0.21	0.28	169.5	277.5	43.5	0	0	0	0	0	0	0	0	0	0	0	0	0	0	0	0	0	0	188012	212652	0
1651053510883	50.264	-4.392	-997.472	0	-0.21	0.28	163.5	277.5	45	0	0	0	0	0	0	0	0	0	0	0	0	0	0	0	0	0	0	188018	212600	0
1651053510893	51.728	-13.176	-993.568	0.21	-0.28	0.28	163.5	276	42	0	0	0	0	0	0	0	0	0	0	0	0	0	0	0	0	0	0	188002	212564	0
1651053510903	49.776	-9.272	-1002.84	0.56	-0.28	0.28	166.5	277.5	42	0	0	0	0	0	0	0	0	0	0	0	0	0	0	0	0	0	0	187979	212558	0
1651053510913	45.384	-17.568	-995.032	0.84	-0.28	0.14	169.5	280.5	40.5	0	0	0	0	0	0	0	0	0	0	0	0	0	0	0	0	0	0	187952	212554	0
1651053510923	48.8	-11.224	-993.568	1.47	-0.28	-0.49	169.5	285	40.5	0	0	0	0	0	0	0	0	0	0	0	0	0	0	0	0	0	0	187932	212609	0
1651053510933	45.384	-10.248	-996.008	-0.07	-0.28	0.28	169.5	280.5	45	0	0	0	0	0	0	0	0	0	0	0	0	0	0	0	0	0	0	187859	212564	0
1651053510943	38.552	-7.32	-994.056	0.42	-0.21	0.35	166.5	279	39	0	0	0	0	0	0	0	0	0	0	0	0	0	0	0	0	0	0	187824	212546	0
1651053510953	41.968	-11.712	-997.472	0.35	-0.28	0.35	168	280.5	43.5	0	0	0	0	0	0	0	0	0	0	0	0	0	0	0	0	0	0	187756	212477	0
1651053510963	50.264	-11.712	-994.544	0.91	-0.21	0.35	171	277.5	48	0	0	0	0	0	0	0	0	0	0	0	0	0	0	0	0	0	0	187699	212449	0
1651053510973	46.36	-10.736	-990.64	1.19	-0.28	0.35	169.5	280.5	46.5	0	0	0	0	0	0	0	0	0	0	0	0	0	0	0	0	0	0	187660	212403	0
1651053510983	57.096	-10.736	-992.592	1.33	-0.28	0.42	168	277.5	42	0	0	0	0	0	0	0	0	0	0	0	0	0	0	0	0	0	0	187633	212376	0
1651053510993	47.824	-1.952	-992.104	0.98	-0.35	0.49	166.5	273	37.5	0	0	0	0	0	0	0	0	0	0	0	0	0	0	0	0	0	0	187587	212324	0
1651053511003	40.016	-9.76	-997.472	0.42	-0.21	0.35	165	279	45	0	0	0	0	0	0	0	0	0	0	0	0	0	0	0	0	0	0	187602	212316	0
1651053511013	49.288	-16.104	-989.664	-0.07	-0.21	0.28	168	280.5	46.5	0	0	0	0	0	0	0	0	0	0	0	0	0	0	0	0	0	0	187598	212313	0
1651053511023	39.528	-17.08	-998.448	-0.49	-0.35	0.35	171	282	40.5	0	0	0	0	0	0	0	0	0	0	0	0	0	0	0	0	0	0	187603	212313	0
1651053511033	45.384	-14.64	-996.008	-0.07	-0.14	0.28	168	283.5	45	0	0	0	0	0	0	0	0	0	0	0	0	0	0	0	0	0	0	187599	212273	0
1651053511043	46.36	-7.32	-997.96	0.28	-0.28	0.42	163.5	285	45	0	0	0	0	0	0	0	0	0	0	0	0	0	0	0	0	0	0	187599	212253	0
1651053511053	48.8	-16.592	-989.664	0.63	-0.35	0.49	162	280.5	46.5	0	0	0	0	0	0	0	0	0	0	0	0	0	0	0	0	0	0	187578	212198	0
1651053511063	50.752	-3.416	-997.96	0.77	-0.28	0.21	163.5	274.5	43.5	0	0	0	0	0	0	0	0	0	0	0	0	0	0	0	0	0	0	187571	212139	0
1651053511073	64.904	-11.224	-992.592	0.7	-0.28	0.35	171	279	45	0	0	0	0	0	0	0	0	0	0	0	0	0	0	0	0	0	0	187536	212093	0
1651053511083	44.408	-5.368	-998.448	0.7	-0.07	0.42	172.5	282	46.5	0	0	0	0	0	0	0	0	0	0	0	0	0	0	0	0	0	0	187543	212051	0
1651053511093	44.408	-9.272	-999.912	0.98	-0.28	0.35	169.5	283.5	42	0	0	0	0	0	0	0	0	0	0	0	0	0	0	0	0	0	0	187528	211997	0
1651053511103	39.04	-11.712	-994.544	1.05	-0.28	0.35	168	283.5	34.5	0	0	0	0	0	0	0	0	0	0	0	0	0	0	0	0	0	0	187515	211911	0
1651053511113	49.288	-14.152	-988.688	1.4	-0.28	0.42	172.5	280.5	39	0	0	0	0	0	0	0	0	0	0	0	0	0	0	0	0	0	0	187509	211848	0
1651053511123	54.656	-9.272	-986.736	1.12	-0.21	0.35	166.5	279	43.5	0	0	0	0	0	0	0	0	0	0	0	0	0	0	0	0	0	0	187494	211827	0
1651053511133	49.288	-10.248	-994.056	0.98	-0.21	0.28	168	280.5	42	0	0	0	0	0	0	0	0	0	0	0	0	0	0	0	0	0	0	187482	211838	0
1651053511143	43.432	-13.664	-993.08	0.84	-0.21	0.35	169.5	282	37.5	0	0	0	0	0	0	0	0	0	0	0	0	0	0	0	0	0	0	187473	211841	0
1651053511153	52.704	-3.416	-999.912	0.42	-0.28	0.28	163.5	285	37.5	0	0	0	0	0	0	0	0	0	0	0	0	0	0	0	0	0	0	187455	211825	0
1651053511163	40.016	-15.616	-994.056	0.77	-0.28	0.42	165	279	42	0	0	0	0	0	0	0	0	0	0	0	0	0	0	0	0	0	0	187461	211828	0
1651053511173	51.728	-12.688	-996.496	1.4	-0.28	0.35	168	279	49.5	0	0	0	0	0	0	0	0	0	0	0	0	0	0	0	0	0	0	187448	211851	0
1651053511183	46.36	-17.568	-993.08	1.4	-0.14	0.42	169.5	280.5	51	0	0	0	0	0	0	0	0	0	0	0	0	0	0	0	0	0	0	187459	211889	0
1651053511193	51.24	-14.64	-994.056	1.33	-0.21	0.35	168	283.5	48	0	0	0	0	0	0	0	0	0	0	0	0	0	0	0	0	0	0	187469	211927	0
1651053511203	47.336	-12.2	-996.008	1.12	-0.28	0.42	169.5	283.5	46.5	0	0	0	0	0	0	0	0	0	0	0	0	0	0	0	0	0	0	187488	211973	0
1651053511213	52.704	-19.032	-996.008	0.7	-0.28	0.35	168	285	43.5	0	0	0	0	0	0	0	0	0	0	0	0	0	0	0	0	0	0	187502	212012	0
1651053511223	53.68	-16.592	-992.104	0.42	-0.21	0.28	171	283.5	45	0	0	0	0	0	0	0	0	0	0	0	0	0	0	0	0	0	0	187518	212060	0
1651053511233	49.288	-14.64	-994.056	0.14	-0.28	0.35	177	280.5	43.5	0	0	0	0	0	0	0	0	0	0	0	0	0	0	0	0	0	0	187531	212097	0
1651053511243	48.8	-12.2	-999.424	0.14	-0.21	0.28	174	282	43.5	0	0	0	0	0	0	0	0	0	0	0	0	0	0	0	0	0	0	187551	212152	0
1651053511253	48.8	-11.712	-995.032	0.35	-0.21	0.35	169.5	277.5	45	0	0	0	0	0	0	0	0	0	0	0	0	0	0	0	0	0	0	187544	212211	0
1651053511263	47.824	-9.272	-995.032	0.63	-0.28	0.35	168	276	43.5	0	0	0	0	0	0	0	0	0	0	0	0	0	0	0	0	0	0	187562	212249	0
1651053511273	48.312	-13.664	-992.104	0.91	-0.28	0.49	165	280.5	45	0	0	0	0	0	0	0	0	0	0	0	0	0	0	0	0	0	0	187570	212259	0
1651053511283	57.584	-15.128	-993.08	0.91	-0.14	0.35	162	279	43.5	0	0	0	0	0	0	0	0	0	0	0	0	0	0	0	0	0	0	187584	212316	0
1651053511293	47.824	-20.496	-991.616	0.49	-0.21	0.42	168	277.5	43.5	0	0	0	0	0	0	0	0	0	0	0	0	0	0	0	0	0	0	187616	212370	0
1651053511303	44.408	-18.544	-999.912	0	-0.28	0.35	169.5	279	40.5	0	0	0	0	0	0	0	0	0	0	0	0	0	0	0	0	0	0	187637	212398	0
1651053511313	40.016	-7.808	-992.104	0.07	-0.21	0.28	168	280.5	45	0	0	0	0	0	0	0	0	0	0	0	0	0	0	0	0	0	0	187660	212439	0
1651053511323	40.992	-12.688	-995.52	0.49	-0.28	0.28	171	282	54	0	0	0	0	0	0	0	0	0	0	0	0	0	0	0	0	0	0	187655	212468	0
1651053511333	49.288	-11.712	-997.472	0.91	-0.28	0.49	171	282	49.5	0	0	0	0	0	0	0	0	0	0	0	0	0	0	0	0	0	0	187657	212470	0
1651053511343	44.896	-11.712	-1001.376	0.77	-0.28	0.42	166.5	282	42	0	0	0	0	0	0	0	0	0	0	0	0	0	0	0	0	0	0	187674	212496	0
1651053511353	46.36	-14.64	-991.616	0.7	-0.28	0.35	169.5	282	42	0	0	0	0	0	0	0	0	0	0	0	0	0	0	0	0	0	0	187689	212512	0
1651053511363	54.168	-12.688	-985.76	0.42	-0.14	0.35	169.5	283.5	45	0	0	0	0	0	0	0	0	0	0	0	0	0	0	0	0	0	0	187682	212512	0
1651053511373	46.848	-20.008	-995.52	0.28	-0.21	0.35	165	288	42	0	0	0	0	0	0	0	0	0	0	0	0	0	0	0	0	0	0	187678	212489	0
1651053511383	48.312	-14.64	-996.496	0.07	-0.28	0.35	166.5	289.5	40.5	0	0	0	0	0	0	0	0	0	0	0	0	0	0	0	0	0	0	187659	212482	0
1651053511393	42.456	-17.568	-992.104	0.28	-0.21	0.42	171	282	42	0	0	0	0	0	0	0	0	0	0	0	0	0	0	0	0	0	0	187647	212445	0
1651053511403	38.552	-18.056	-992.592	0.77	-0.14	0.35	171	279	43.5	0	0	0	0	0	0	0	0	0	0	0	0	0	0	0	0	0	0	187649	212444	0
1651053511413	42.944	-12.2	-997.472	0.42	-0.21	0.35	166.5	280.5	42	0	0	0	0	0	0	0	0	0	0	0	0	0	0	0	0	0	0	187640	212433	0
1651053511423	47.336	-9.76	-991.616	0.14	-0.21	0.35	169.5	283.5	45	0	0	0	0	0	0	0	0	0	0	0	0	0	0	0	0	0	0	187645	212394	0
1651053511433	44.896	-9.272	-994.056	-0.49	-0.21	0.35	168	280.5	42	0	0	0	0	0	0	0	0	0	0	0	0	0	0	0	0	0	0	187626	212378	0
1651053511443	47.336	-10.736	-994.544	-0.56	-0.28	0.35	168	279	40.5	0	0	0	0	0	0	0	0	0	0	0	0	0	0	0	0	0	0	187607	212372	0
1651053511453	43.432	-17.568	-996.984	-0.07	-0.21	0.42	166.5	274.5	37.5	0	0	0	0	0	0	0	0	0	0	0	0	0	0	0	0	0	0	187597	212366	0
1651053511463	45.872	-12.2	-996.984	0.28	-0.21	0.42	166.5	277.5	40.5	0	0	0	0	0	0	0	0	0	0	0	0	0	0	0	0	0	0	187573	212354	0
1651053511473	50.752	-15.128	-995.032	0.91	-0.28	0.42	163.5	282	45	0	0	0	0	0	0	0	0	0	0	0	0	0	0	0	0	0	0	187560	212332	0
1651053511483	56.12	-15.616	-1001.376	0.98	-0.35	0.42	166.5	282	42	0	0	0	0	0	0	0	0	0	0	0	0	0	0	0	0	0	0	187530	212313	0
1651053511493	49.288	-13.664	-998.936	0.49	-0.28	0.42	168	280.5	36	0	0	0	0	0	0	0	0	0	0	0	0	0	0	0	0	0	0	187524	212306	0
1651053511503	39.04	-18.056	-995.52	0	-0.21	0.35	168	279	39	0	0	0	0	0	0	0	0	0	0	0	0	0	0	0	0	0	0	187508	212289	0
1651053511513	47.336	-13.664	-994.056	-0.21	-0.28	0.35	169.5	277.5	42	0	0	0	0	0	0	0	0	0	0	0	0	0	0	0	0	0	0	187518	212299	0
1651053511523	56.12	-13.664	-997.472	-0.42	-0.21	0.35	166.5	276	40.5	0	0	0	0	0	0	0	0	0	0	0	0	0	0	0	0	0	0	187513	212312	0
1651053511533	44.896	-10.248	-997.96	-0.14	-0.28	0.35	168	279	43.5	0	0	0	0	0	0	0	0	0	0	0	0	0	0	0	0	0	0	187514	212327	0
1651053511543	41.48	-10.248	-993.08	0.21	-0.28	0.28	171	280.5	43.5	0	0	0	0	0	0	0	0	0	0	0	0	0	0	0	0	0	0	187512	212334	0
1651053511553	42.944	-8.296	-995.032	0.35	-0.28	0.42	163.5	282	40.5	0	0	0	0	0	0	0	0	0	0	0	0	0	0	0	0	0	0	187499	212320	0
1651053511563	49.288	-10.248	-996.496	0.7	-0.35	0.35	162	279	40.5	0	0	0	0	0	0	0	0	0	0	0	0	0	0	0	0	0	0	187518	212320	0
1651053511573	46.36	-13.176	-990.64	0.7	-0.21	0.35	169.5	276	42	0	0	0	0	0	0	0	0	0	0	0	0	0	0	0	0	0	0	187527	212305	0
1651053511583	48.8	-14.152	-993.08	0.63	-0.28	0.42	169.5	279	39	0	0	0	0	0	0	0	0	0	0	0	0	0	0	0	0	0	0	187511	212320	0
1651053511593	50.752	-20.008	-998.448	1.05	-0.21	0.42	166.5	285	37.5	0	0	0	0	0	0	0	0	0	0	0	0	0	0	0	0	0	0	187496	212313	0
1651053511603	40.016	-20.496	-995.52	0.35	-0.28	0.35	168	288	42	0	0	0	0	0	0	0	0	0	0	0	0	0	0	0	0	0	0	187495	212348	0
1651053511613	43.92	-14.152	-992.592	-0.14	-0.21	0.35	166.5	282	39	0	0	0	0	0	0	0	0	0	0	0	0	0	0	0	0	0	0	187488	212356	0
1651053511623	44.896	-20.008	-996.984	-0.56	-0.21	0.42	165	280.5	34.5	0	0	0	0	0	0	0	0	0	0	0	0	0	0	0	0	0	0	187477	212352	0
1651053511633	52.216	-11.224	-992.104	-0.14	-0.28	0.42	163.5	282	43.5	0	0	0	0	0	0	0	0	0	0	0	0	0	0	0	0	0	0	187482	212363	0
1651053511643	47.336	-6.832	-996.496	0.21	-0.35	0.28	166.5	279	45	0	0	0	0	0	0	0	0	0	0	0	0	0	0	0	0	0	0	187478	212363	0
1651053511653	52.216	-14.64	-992.592	0.98	-0.28	0.35	169.5	276	46.5	0	0	0	0	0	0	0	0	0	0	0	0	0	0	0	0	0	0	187478	212372	0
1651053511663	59.048	-13.664	-1002.352	1.05	-0.28	0.28	166.5	279	46.5	0	0	0	0	0	0	0	0	0	0	0	0	0	0	0	0	0	0	187471	212344	0
1651053511673	52.216	-11.224	-990.152	0.84	-0.28	0.35	165	283.5	48	0	0	0	0	0	0	0	0	0	0	0	0	0	0	0	0	0	0	187436	212336	0
1651053511683	58.56	-11.712	-991.128	0.7	-0.28	0.35	165	285	42	0	0	0	0	0	0	0	0	0	0	0	0	0	0	0	0	0	0	187462	212319	0
1651053511693	41.968	-15.616	-993.08	0	-0.28	0.35	166.5	282	39	0	0	0	0	0	0	0	0	0	0	0	0	0	0	0	0	0	0	187469	212292	0
1651053511703	50.752	-20.008	-995.52	-0.42	-0.21	0.42	165	279	42	0	0	0	0	0	0	0	0	0	0	0	0	0	0	0	0	0	0	187441	212286	0
1651053511713	40.992	-7.32	-993.08	-0.28	-0.35	0.35	169.5	282	43.5	0	0	0	0	0	0	0	0	0	0	0	0	0	0	0	0	0	0	187432	212282	0
1651053511723	44.896	-11.224	-996.008	0.35	-0.21	0.35	174	280.5	40.5	0	0	0	0	0	0	0	0	0	0	0	0	0	0	0	0	0	0	187447	212304	0
1651053511733	51.24	-11.224	-996.984	0.77	-0.21	0.42	166.5	276	37.5	0	0	0	0	0	0	0	0	0	0	0	0	0	0	0	0	0	0	187444	212314	0
1651053511743	49.776	-15.616	-994.056	0.56	-0.21	0.35	169.5	282	45	0	0	0	0	0	0	0	0	0	0	0	0	0	0	0	0	0	0	187425	212302	0
1651053511753	54.168	-10.248	-992.592	-0.14	-0.21	0.42	174	285	45	0	0	0	0	0	0	0	0	0	0	0	0	0	0	0	0	0	0	187439	212302	0
1651053511763	44.896	-10.248	-993.08	-0.63	-0.21	0.35	169.5	283.5	42	0	0	0	0	0	0	0	0	0	0	0	0	0	0	0	0	0	0	187418	212302	0
1651053511773	47.336	-19.032	-1004.792	-0.14	-0.35	0.35	166.5	282	42	0	0	0	0	0	0	0	0	0	0	0	0	0	0	0	0	0	0	187424	212285	0
1651053511783	52.704	-14.152	-1000.888	0.63	-0.28	0.35	168	280.5	45	0	0	0	0	0	0	0	0	0	0	0	0	0	0	0	0	0	0	187429	212264	0
1651053511793	49.776	-14.152	-988.688	1.54	-0.35	0.49	166.5	283.5	42	0	0	0	0	0	0	0	0	0	0	0	0	0	0	0	0	0	0	187417	212223	0
1651053511803	41.968	-12.2	-1003.328	1.26	-0.21	0.35	165	282	39	0	0	0	0	0	0	0	0	0	0	0	0	0	0	0	0	0	0	187393	212153	0
1651053511813	49.776	-16.592	-994.056	0.49	-0.35	0.35	169.5	280.5	46.5	0	0	0	0	0	0	0	0	0	0	0	0	0	0	0	0	0	0	187368	212081	0
1651053511823	39.528	-10.248	-999.912	-0.35	-0.21	0.35	168	279	49.5	0	0	0	0	0	0	0	0	0	0	0	0	0	0	0	0	0	0	187333	211988	0
1651053511833	53.192	-13.176	-994.544	-0.63	-0.28	0.28	169.5	277.5	46.5	0	0	0	0	0	0	0	0	0	0	0	0	0	0	0	0	0	0	187304	211898	0
1651053511843	40.504	-6.832	-993.08	-0.21	-0.28	0.42	174	273	43.5	0	0	0	0	0	0	0	0	0	0	0	0	0	0	0	0	0	0	187271	211821	0
1651053511853	49.776	-11.712	-996.496	0.28	-0.35	0.35	172.5	277.5	45	0	0	0	0	0	0	0	0	0	0	0	0	0	0	0	0	0	0	187239	211712	0
1651053511863	52.704	-10.248	-994.056	0.7	-0.21	0.42	171	283.5	51	0	0	0	0	0	0	0	0	0	0	0	0	0	0	0	0	0	0	187211	211637	0
1651053511873	49.776	-3.416	-989.664	0.63	-0.21	0.35	168	282	45	0	0	0	0	0	0	0	0	0	0	0	0	0	0	0	0	0	0	187178	211558	0
1651053511883	49.288	-9.272	-992.104	0.21	-0.28	0.49	168	276	39	0	0	0	0	0	0	0	0	0	0	0	0	0	0	0	0	0	0	187148	211512	0
1651053511893	52.704	-7.32	-985.76	-1.12	-0.35	0.49	163.5	277.5	42	0	0	0	0	0	0	0	0	0	0	0	0	0	0	0	0	0	0	187133	211470	0
1651053511903	46.36	-12.688	-988.2	-0.28	-0.07	0.21	159	280.5	39	0	0	0	0	0	0	0	0	0	0	0	0	0	0	0	0	0	0	187120	211457	0
1651053511913	43.432	-16.592	-996.984	-0.28	-0.21	0.35	163.5	279	39	0	0	0	0	0	0	0	0	0	0	0	0	0	0	0	0	0	0	187107	211477	0
1651053511923	44.408	-13.664	-992.592	0.28	-0.21	0.35	165	282	45	0	0	0	0	0	0	0	0	0	0	0	0	0	0	0	0	0	0	187115	211501	0
1651053511933	37.576	-9.76	-992.592	0	-0.35	0.42	169.5	282	42	0	0	0	0	0	0	0	0	0	0	0	0	0	0	0	0	0	0	187112	211531	0
1651053511943	46.36	-1.952	-988.688	0.49	-0.28	0.42	169.5	273	45	0	0	0	0	0	0	0	0	0	0	0	0	0	0	0	0	0	0	187119	211546	0
1651053511953	46.848	-14.152	-998.448	0.21	-0.28	0.35	168	277.5	48	0	0	0	0	0	0	0	0	0	0	0	0	0	0	0	0	0	0	187111	211532	0
1651053511963	44.408	-11.712	-982.832	0.63	-0.28	0.42	174	280.5	45	0	0	0	0	0	0	0	0	0	0	0	0	0	0	0	0	0	0	187097	211528	0
1651053511973	59.048	-15.128	-1006.744	0.84	-0.21	0.49	172.5	280.5	42	0	0	0	0	0	0	0	0	0	0	0	0	0	0	0	0	0	0	187079	211525	0
1651053511983	44.408	-14.64	-994.544	-0.14	-0.14	0.42	168	283.5	45	0	0	0	0	0	0	0	0	0	0	0	0	0	0	0	0	0	0	187060	211513	0
1651053511993	41.968	-13.176	-989.176	0.07	-0.21	0.49	168	279	45	0	0	0	0	0	0	0	0	0	0	0	0	0	0	0	0	0	0	187037	211484	0
1651053512003	40.992	-14.64	-997.96	0.07	-0.28	0.28	169.5	274.5	39	0	0	0	0	0	0	0	0	0	0	0	0	0	0	0	0	0	0	187016	211466	0
1651053512013	46.848	-12.688	-1000.888	0.42	-0.35	0.42	172.5	276	37.5	0	0	0	0	0	0	0	0	0	0	0	0	0	0	0	0	0	0	187001	211457	0
1651053512023	46.36	-7.808	-998.936	0.63	-0.21	0.42	171	282	40.5	0	0	0	0	0	0	0	0	0	0	0	0	0	0	0	0	0	0	187004	211444	0
1651053512033	54.656	-5.856	-991.128	1.26	-0.28	0.35	166.5	279	43.5	0	0	0	0	0	0	0	0	0	0	0	0	0	0	0	0	0	0	186989	211447	0
1651053512043	39.04	-12.2	-994.544	0.42	-0.28	0.42	168	279	48	0	0	0	0	0	0	0	0	0	0	0	0	0	0	0	0	0	0	186965	211427	0
1651053512053	48.312	-10.736	-995.032	0.21	-0.28	0.21	165	279	48	0	0	0	0	0	0	0	0	0	0	0	0	0	0	0	0	0	0	186971	211448	0
1651053512063	47.336	-7.808	-992.104	0.28	-0.21	0.28	169.5	277.5	43.5	0	0	0	0	0	0	0	0	0	0	0	0	0	0	0	0	0	0	186959	211450	0
1651053512073	48.8	-5.368	-995.032	0	-0.35	0.35	169.5	277.5	42	0	0	0	0	0	0	0	0	0	0	0	0	0	0	0	0	0	0	186952	211416	0
1651053512083	56.12	-15.616	-987.712	0.7	-0.21	0.35	166.5	282	45	0	0	0	0	0	0	0	0	0	0	0	0	0	0	0	0	0	0	186949	211400	0
1651053512093	47.824	-15.128	-992.104	0.42	-0.35	0.42	168	282	40.5	0	0	0	0	0	0	0	0	0	0	0	0	0	0	0	0	0	0	186933	211375	0
1651053512103	42.456	-20.008	-994.544	0.84	-0.28	0.28	169.5	282	40.5	0	0	0	0	0	0	0	0	0	0	0	0	0	0	0	0	0	0	186909	211365	0
1651053512113	38.064	-19.52	-995.032	1.05	-0.35	0.35	168	283.5	43.5	0	0	0	0	0	0	0	0	0	0	0	0	0	0	0	0	0	0	186898	211350	0
1651053512123	51.728	-20.984	-997.472	0.84	-0.28	0.28	165	285	45	0	0	0	0	0	0	0	0	0	0	0	0	0	0	0	0	0	0	186897	211354	0
1651053512133	50.752	-8.784	-989.664	0.28	-0.42	0.35	166.5	283.5	46.5	0	0	0	0	0	0	0	0	0	0	0	0	0	0	0	0	0	0	186892	211322	0
1651053512143	50.264	-14.152	-992.592	0.07	-0.28	0.42	168	283.5	43.5	0	0	0	0	0	0	0	0	0	0	0	0	0	0	0	0	0	0	186886	211335	0
1651053512153	55.144	-7.32	-996.984	-0.14	-0.21	0.35	168	280.5	39	0	0	0	0	0	0	0	0	0	0	0	0	0	0	0	0	0	0	186864	211310	0
1651053512163	49.776	-5.368	-994.544	-0.14	-0.28	0.42	166.5	280.5	43.5	0	0	0	0	0	0	0	0	0	0	0	0	0	0	0	0	0	0	186857	211333	0
1651053512173	53.68	-12.2	-991.128	0.14	-0.21	0.42	163.5	279	45	0	0	0	0	0	0	0	0	0	0	0	0	0	0	0	0	0	0	186863	211352	0
1651053512183	48.8	-15.128	-995.52	0.07	-0.21	0.35	166.5	274.5	40.5	0	0	0	0	0	0	0	0	0	0	0	0	0	0	0	0	0	0	186861	211377	0
1651053512193	45.384	-16.104	-995.52	0	-0.28	0.35	172.5	277.5	39	0	0	0	0	0	0	0	0	0	0	0	0	0	0	0	0	0	0	186841	211383	0
1651053512203	45.872	-23.912	-1000.4	0.07	-0.21	0.28	172.5	282	42	0	0	0	0	0	0	0	0	0	0	0	0	0	0	0	0	0	0	186859	211387	0
1651053512213	43.432	-20.008	-1000.888	0.56	-0.07	0.35	171	280.5	43.5	0	0	0	0	0	0	0	0	0	0	0	0	0	0	0	0	0	0	186836	211384	0
1651053512223	44.408	-4.88	-994.056	-0.56	-0.35	0.35	171	280.5	43.5	0	0	0	0	0	0	0	0	0	0	0	0	0	0	0	0	0	0	186852	211392	0
1651053512233	48.8	-14.152	-994.056	0.14	-0.28	0.35	169.5	282	43.5	0	0	0	0	0	0	0	0	0	0	0	0	0	0	0	0	0	0	186863	211381	0
1651053512243	51.728	-14.152	-991.616	-0.49	-0.28	0.42	172.5	280.5	42	0	0	0	0	0	0	0	0	0	0	0	0	0	0	0	0	0	0	186837	211366	0
1651053512253	50.752	-5.856	-996.008	-0.35	-0.21	0.42	168	277.5	43.5	0	0	0	0	0	0	0	0	0	0	0	0	0	0	0	0	0	0	186841	211370	0
1651053512263	45.384	-13.664	-1009.184	-0.91	-0.35	0.35	163.5	280.5	45	0	0	0	0	0	0	0	0	0	0	0	0	0	0	0	0	0	0	186823	211353	0
1651053512273	59.536	-8.296	-978.928	-1.4	-0.21	0.63	162	280.5	42	0	0	0	0	0	0	0	0	0	0	0	0	0	0	0	0	0	0	186806	211353	0
1651053512283	47.336	-15.128	-1001.376	-0.42	-0.21	0.7	163.5	279	39	0	0	0	0	0	0	0	0	0	0	0	0	0	0	0	0	0	0	186812	211342	0
1651053512293	47.336	-10.736	-996.984	0.63	-0.28	0.91	166.5	279	45	0	0	0	0	0	0	0	0	0	0	0	0	0	0	0	0	0	0	186813	211353	0
1651053512303	50.264	-8.784	-989.176	0.28	-0.35	0.63	166.5	280.5	46.5	0	0	0	0	0	0	0	0	0	0	0	0	0	0	0	0	0	0	186796	211344	0
1651053512313	42.456	-15.616	-996.008	0.84	-0.28	0.35	168	282	45	0	0	0	0	0	0	0	0	0	0	0	0	0	0	0	0	0	0	186811	211336	0
1651053512323	49.776	-11.712	-985.272	-0.28	-0.21	0.35	165	279	43.5	0	0	0	0	0	0	0	0	0	0	0	0	0	0	0	0	0	0	186805	211375	0
1651053512333	50.264	-14.64	-996.496	0	-0.28	0.21	166.5	282	42	0	0	0	0	0	0	0	0	0	0	0	0	0	0	0	0	0	0	186821	211375	0
1651053512343	43.432	-8.296	-989.176	0	-0.28	0.28	171	283.5	43.5	0	0	0	0	0	0	0	0	0	0	0	0	0	0	0	0	0	0	186816	211375	0
1651053512353	43.432	-8.296	-987.224	0.56	-0.28	0.42	171	280.5	42	0	0	0	0	0	0	0	0	0	0	0	0	0	0	0	0	0	0	186824	211380	0
1651053512363	48.8	-9.76	-1007.72	1.47	-0.21	0.35	168	282	42	0	0	0	0	0	0	0	0	0	0	0	0	0	0	0	0	0	0	186820	211373	0
1651053512373	58.072	-11.224	-985.272	0	-0.28	0.42	168	282	46.5	0	0	0	0	0	0	0	0	0	0	0	0	0	0	0	0	0	0	186811	211353	0
1651053512383	46.36	-11.224	-996.496	0.56	-0.35	0.35	166.5	283.5	46.5	0	0	0	0	0	0	0	0	0	0	0	0	0	0	0	0	0	0	186805	211342	0
1651053512393	49.288	-9.76	-990.152	0.63	-0.14	0.21	169.5	279	46.5	0	0	0	0	0	0	0	0	0	0	0	0	0	0	0	0	0	0	186779	211299	0
1651053512403	41.968	-17.08	-998.448	0.21	-0.28	0.49	169.5	280.5	43.5	0	0	0	0	0	0	0	0	0	0	0	0	0	0	0	0	0	0	186778	211294	0
1651053512413	36.112	-16.592	-1000.4	0.42	-0.21	0.21	174	279	43.5	0	0	0	0	0	0	0	0	0	0	0	0	0	0	0	0	0	0	186759	211268	0
1651053512424	44.896	-11.224	-1005.28	0.07	-0.28	0.35	171	276	40.5	0	0	0	0	0	0	0	0	0	0	0	0	0	0	0	0	0	0	186756	211274	0
1651053512434	44.896	-6.832	-989.664	-0.63	-0.28	0.42	165	279	42	0	0	0	0	0	0	0	0	0	0	0	0	0	0	0	0	0	0	186751	211288	0
1651053512444	52.216	-9.272	-985.272	0.42	-0.28	0.35	168	282	42	0	0	0	0	0	0	0	0	0	0	0	0	0	0	0	0	0	0	186768	211310	0
1651053512454	48.312	-14.152	-997.472	-0.42	-0.21	0.35	168	279	40.5	0	0	0	0	0	0	0	0	0	0	0	0	0	0	0	0	0	0	186766	211342	0
1651053512464	51.728	-8.296	-991.616	-0.14	-0.21	0.35	169.5	279	40.5	0	0	0	0	0	0	0	0	0	0	0	0	0	0	0	0	0	0	186778	211363	0
1651053512474	45.384	-1.952	-995.032	-0.28	-0.28	0.35	165	283.5	42	0	0	0	0	0	0	0	0	0	0	0	0	0	0	0	0	0	0	186765	211338	0
1651053512484	48.312	-5.856	-988.688	0.49	-0.14	0.35	166.5	285	42	0	0	0	0	0	0	0	0	0	0	0	0	0	0	0	0	0	0	186761	211346	0
1651053512494	53.192	-14.152	-996.984	0.42	-0.35	0.35	166.5	283.5	37.5	0	0	0	0	0	0	0	0	0	0	0	0	0	0	0	0	0	0	186757	211342	0
1651053512504	52.704	-9.272	-992.104	0.7	-0.28	0.49	166.5	279	42	0	0	0	0	0	0	0	0	0	0	0	0	0	0	0	0	0	0	186748	211348	0
1651053512514	53.68	-20.984	-1005.768	1.54	-0.21	0.35	166.5	279	45	0	0	0	0	0	0	0	0	0	0	0	0	0	0	0	0	0	0	186743	211352	0
1651053512524	52.216	-13.664	-989.176	-0.42	-0.28	0.28	168	279	43.5	0	0	0	0	0	0	0	0	0	0	0	0	0	0	0	0	0	0	186747	211349	0
1651053512534	34.648	-11.224	-994.056	0.28	-0.28	0.35	168	277.5	37.5	0	0	0	0	0	0	0	0	0	0	0	0	0	0	0	0	0	0	186753	211374	0
1651053512544	53.192	-13.176	-987.712	-0.07	-0.21	0.35	168	277.5	40.5	0	0	0	0	0	0	0	0	0	0	0	0	0	0	0	0	0	0	186738	211363	0
1651053512554	41.48	-10.248	-1004.304	0.35	-0.28	0.28	169.5	282	43.5	0	0	0	0	0	0	0	0	0	0	0	0	0	0	0	0	0	0	186743	211372	0
1651053512564	50.264	-12.2	-989.664	0.49	-0.28	0.42	171	289.5	43.5	0	0	0	0	0	0	0	0	0	0	0	0	0	0	0	0	0	0	186720	211351	0
1651053512574	46.36	-14.64	-994.544	0.56	-0.21	0.35	169.5	286.5	45	0	0	0	0	0	0	0	0	0	0	0	0	0	0	0	0	0	0	186716	211323	0
1651053512584	46.848	-6.344	-993.568	0.56	-0.28	0.35	168	279	49.5	0	0	0	0	0	0	0	0	0	0	0	0	0	0	0	0	0	0	186715	211283	0
1651053512594	40.504	-12.2	-990.152	0.91	-0.21	0.35	175.5	282	45	0	0	0	0	0	0	0	0	0	0	0	0	0	0	0	0	0	0	186710	211242	0
1651053512604	54.168	-10.248	-990.64	0.91	-0.21	0.42	172.5	283.5	36	0	0	0	0	0	0	0	0	0	0	0	0	0	0	0	0	0	0	186685	211161	0
1651053512614	59.536	-13.176	-992.104	0.77	-0.28	0.35	171	286.5	42	0	0	0	0	0	0	0	0	0	0	0	0	0	0	0	0	0	0	186659	211064	0
1651053512624	47.824	-9.272	-1000.888	0.63	-0.28	0.35	174	286.5	45	0	0	0	0	0	0	0	0	0	0	0	0	0	0	0	0	0	0	186632	211022	0
1651053512634	40.016	-12.2	-998.936	0.49	-0.21	0.35	168	286.5	42	0	0	0	0	0	0	0	0	0	0	0	0	0	0	0	0	0	0	186612	210963	0
1651053512644	44.408	-10.736	-991.128	0.49	-0.35	0.42	168	283.5	49.5	0	0	0	0	0	0	0	0	0	0	0	0	0	0	0	0	0	0	186614	210952	0
1651053512654	49.776	-8.296	-988.688	0.42	-0.28	0.35	165	282	51	0	0	0	0	0	0	0	0	0	0	0	0	0	0	0	0	0	0	186600	210933	0
1651053512664	45.872	-11.224	-995.52	0.28	-0.21	0.35	169.5	283.5	46.5	0	0	0	0	0	0	0	0	0	0	0	0	0	0	0	0	0	0	186596	210971	0
1651053512674	57.584	-7.808	-995.032	0.14	-0.35	0.35	171	285	45	0	0	0	0	0	0	0	0	0	0	0	0	0	0	0	0	0	0	186613	211004	0
1651053512684	52.704	-13.664	-998.936	0.77	-0.21	0.49	171	283.5	43.5	0	0	0	0	0	0	0	0	0	0	0	0	0	0	0	0	0	0	186608	211006	0
1651053512694	57.096	-11.224	-996.008	0.77	-0.28	0.42	171	277.5	43.5	0	0	0	0	0	0	0	0	0	0	0	0	0	0	0	0	0	0	186622	211036	0
1651053512704	51.728	-12.2	-988.2	0.77	-0.21	0.35	171	283.5	45	0	0	0	0	0	0	0	0	0	0	0	0	0	0	0	0	0	0	186626	211086	0
1651053512714	43.432	-13.176	-992.104	0.49	-0.35	0.35	172.5	285	48	0	0	0	0	0	0	0	0	0	0	0	0	0	0	0	0	0	0	186643	211113	0
1651053512724	44.408	-14.152	-998.936	0.42	-0.28	0.35	172.5	277.5	45	0	0	0	0	0	0	0	0	0	0	0	0	0	0	0	0	0	0	186654	211174	0
1651053512734	48.8	-10.736	-996.008	0.42	-0.28	0.28	175.5	279	40.5	0	0	0	0	0	0	0	0	0	0	0	0	0	0	0	0	0	0	186666	211237	0
1651053512744	45.384	-19.032	-992.592	0.49	-0.21	0.35	180	283.5	37.5	0	0	0	0	0	0	0	0	0	0	0	0	0	0	0	0	0	0	186681	211262	0
1651053512754	48.312	-12.688	-992.104	0.42	-0.28	0.42	180	277.5	39	0	0	0	0	0	0	0	0	0	0	0	0	0	0	0	0	0	0	186699	211319	0
1651053512764	47.336	-10.248	-980.88	0.35	-0.28	0.42	174	273	42	0	0	0	0	0	0	0	0	0	0	0	0	0	0	0	0	0	0	186700	211355	0
1651053512774	45.384	-25.376	-1015.04	0.77	-0.21	0.35	165	279	40.5	0	0	0	0	0	0	0	0	0	0	0	0	0	0	0	0	0	0	186707	211362	0
1651053512784	59.536	-3.904	-982.344	-0.28	-0.35	0.49	162	285	42	0	0	0	0	0	0	0	0	0	0	0	0	0	0	0	0	0	0	186706	211372	0
1651053512794	48.8	-10.736	-993.08	0	-0.28	0.42	165	286.5	40.5	0	0	0	0	0	0	0	0	0	0	0	0	0	0	0	0	0	0	186704	211381	0
1651053512804	53.68	-17.08	-993.08	0.35	-0.14	0.35	166.5	283.5	40.5	0	0	0	0	0	0	0	0	0	0	0	0	0	0	0	0	0	0	186707	211410	0
1651053512814	44.896	-12.688	-995.52	-0.21	-0.14	0.28	168	280.5	40.5	0	0	0	0	0	0	0	0	0	0	0	0	0	0	0	0	0	0	186718	211405	0
1651053512824	43.92	-11.224	-996.984	0.07	-0.21	0.35	174	279	42	0	0	0	0	0	0	0	0	0	0	0	0	0	0	0	0	0	0	186716	211419	0
1651053512834	46.848	-8.784	-995.52	0.35	-0.21	0.35	172.5	282	40.5	0	0	0	0	0	0	0	0	0	0	0	0	0	0	0	0	0	0	186712	211413	0
1651053512844	46.848	-12.688	-997.96	0.63	-0.28	0.28	166.5	285	45	0	0	0	0	0	0	0	0	0	0	0	0	0	0	0	0	0	0	186704	211383	0
1651053512854	58.072	-12.688	-984.784	0.28	-0.28	0.49	163.5	282	46.5	0	0	0	0	0	0	0	0	0	0	0	0	0	0	0	0	0	0	186705	211371	0
1651053512864	54.656	-6.832	-983.32	-0.07	-0.28	0.28	171	277.5	49.5	0	0	0	0	0	0	0	0	0	0	0	0	0	0	0	0	0	0	186695	211363	0
1651053512874	44.408	-13.176	-1003.328	-0.7	-0.21	0.28	172.5	279	45	0	0	0	0	0	0	0	0	0	0	0	0	0	0	0	0	0	0	186675	211353	0
1651053512884	47.336	-11.224	-998.936	-0.14	-0.21	0.28	172.5	283.5	40.5	0	0	0	0	0	0	0	0	0	0	0	0	0	0	0	0	0	0	186683	211349	0
1651053512894	52.216	-15.616	-992.592	-0.14	-0.21	0.35	171	280.5	42	0	0	0	0	0	0	0	0	0	0	0	0	0	0	0	0	0	0	186685	211351	0
1651053512904	42.456	-9.272	-998.448	0.7	-0.28	0.42	165	277.5	39	0	0	0	0	0	0	0	0	0	0	0	0	0	0	0	0	0	0	186682	211335	0
1651053512914	51.24	-20.008	-989.176	0.49	-0.28	0.56	169.5	277.5	42	0	0	0	0	0	0	0	0	0	0	0	0	0	0	0	0	0	0	186669	211328	0
1651053512924	49.776	-17.08	-996.008	0.21	-0.35	0.35	171	276	46.5	0	0	0	0	0	0	0	0	0	0	0	0	0	0	0	0	0	0	186667	211322	0
1651053512934	48.312	-10.736	-995.52	-0.21	-0.14	0.28	169.5	277.5	43.5	0	0	0	0	0	0	0	0	0	0	0	0	0	0	0	0	0	0	186662	211319	0
1651053512944	51.728	-11.224	-995.52	-0.84	-0.28	0.35	166.5	283.5	40.5	0	0	0	0	0	0	0	0	0	0	0	0	0	0	0	0	0	0	186657	211322	0
1651053512954	40.504	-12.2	-996.984	-0.56	-0.28	0.21	169.5	283.5	40.5	0	0	0	0	0	0	0	0	0	0	0	0	0	0	0	0	0	0	186637	211296	0
1651053512964	45.384	-2.928	-995.52	0.35	-0.28	0.35	172.5	279	42	0	0	0	0	0	0	0	0	0	0	0	0	0	0	0	0	0	0	186652	211291	0
1651053512974	46.36	-14.152	-990.152	0.91	-0.28	0.42	169.5	279	43.5	0	0	0	0	0	0	0	0	0	0	0	0	0	0	0	0	0	0	186637	211285	0
1651053512984	58.072	-10.248	-996.496	1.05	-0.35	0.35	166.5	283.5	45	0	0	0	0	0	0	0	0	0	0	0	0	0	0	0	0	0	0	186636	211273	0
1651053512994	45.384	-19.52	-986.736	0.77	-0.28	0.42	166.5	285	43.5	0	0	0	0	0	0	0	0	0	0	0	0	0	0	0	0	0	0	186641	211290	0
1651053513004	49.776	-4.392	-992.104	0.35	-0.28	0.35	168	282	43.5	0	0	0	0	0	0	0	0	0	0	0	0	0	0	0	0	0	0	186641	211290	0
1651053513014	45.384	-20.496	-990.64	0.07	-0.21	0.42	165	285	49.5	0	0	0	0	0	0	0	0	0	0	0	0	0	0	0	0	0	0	186644	211317	0
1651053513024	44.896	-6.344	-994.056	0.07	-0.21	0.28	168	282	48	0	0	0	0	0	0	0	0	0	0	0	0	0	0	0	0	0	0	186637	211313	0
1651053513034	46.36	-12.688	-992.104	0.21	-0.35	0.42	168	279	42	0	0	0	0	0	0	0	0	0	0	0	0	0	0	0	0	0	0	186636	211328	0
1651053513044	53.192	-13.664	-993.568	0.42	-0.28	0.42	168	280.5	43.5	0	0	0	0	0	0	0	0	0	0	0	0	0	0	0	0	0	0	186640	211354	0
1651053513054	48.8	-14.64	-993.568	0.42	-0.28	0.49	168	279	43.5	0	0	0	0	0	0	0	0	0	0	0	0	0	0	0	0	0	0	186627	211362	0
1651053513064	45.384	-11.712	-993.08	0	-0.14	0.42	165	282	43.5	0	0	0	0	0	0	0	0	0	0	0	0	0	0	0	0	0	0	186635	211386	0
1651053513074	39.04	-3.904	-996.984	-0.42	-0.21	0.42	166.5	282	43.5	0	0	0	0	0	0	0	0	0	0	0	0	0	0	0	0	0	0	186641	211368	0
1651053513084	49.776	-7.808	-994.544	-0.42	-0.21	0.35	166.5	282	40.5	0	0	0	0	0	0	0	0	0	0	0	0	0	0	0	0	0	0	186636	211382	0
1651053513094	55.144	-6.344	-998.936	-0.28	-0.28	0.35	172.5	279	45	0	0	0	0	0	0	0	0	0	0	0	0	0	0	0	0	0	0	186632	211360	0
1651053513104	41.968	-10.736	-999.424	0.42	-0.21	0.42	166.5	276	43.5	0	0	0	0	0	0	0	0	0	0	0	0	0	0	0	0	0	0	186650	211376	0
1651053513114	49.288	-11.224	-996.496	0.84	-0.28	0.42	156	277.5	39	0	0	0	0	0	0	0	0	0	0	0	0	0	0	0	0	0	0	186651	211376	0
1651053513124	45.384	-20.496	-996.496	1.26	-0.21	0.42	162	280.5	34.5	0	0	0	0	0	0	0	0	0	0	0	0	0	0	0	0	0	0	186640	211376	0
1651053513134	47.824	-14.64	-991.128	0.91	-0.28	0.35	171	280.5	39	0	0	0	0	0	0	0	0	0	0	0	0	0	0	0	0	0	0	186641	211375	0
1651053513144	42.456	-12.2	-991.616	0.56	-0.28	0.35	171	273	39	0	0	0	0	0	0	0	0	0	0	0	0	0	0	0	0	0	0	186651	211388	0
1651053513154	53.192	-11.224	-994.544	0.28	-0.28	0.35	169.5	280.5	40.5	0	0	0	0	0	0	0	0	0	0	0	0	0	0	0	0	0	0	186666	211417	0
1651053513164	51.24	-11.712	-993.568	0.14	-0.21	0.28	163.5	282	43.5	0	0	0	0	0	0	0	0	0	0	0	0	0	0	0	0	0	0	186663	211431	0
1651053513174	46.36	-10.248	-999.424	0.07	-0.21	0.35	162	277.5	39	0	0	0	0	0	0	0	0	0	0	0	0	0	0	0	0	0	0	186677	211448	0
1651053513184	50.264	-10.736	-996.496	0	-0.28	0.28	166.5	279	37.5	0	0	0	0	0	0	0	0	0	0	0	0	0	0	0	0	0	0	186668	211453	0
1651053513194	52.704	-8.784	-991.128	0	-0.21	0.42	172.5	282	46.5	0	0	0	0	0	0	0	0	0	0	0	0	0	0	0	0	0	0	186672	211426	0
1651053513204	49.288	-13.176	-993.08	0.07	-0.21	0.35	174	280.5	43.5	0	0	0	0	0	0	0	0	0	0	0	0	0	0	0	0	0	0	186663	211421	0
1651053513214	49.776	-12.2	-993.08	0.35	-0.21	0.42	168	280.5	40.5	0	0	0	0	0	0	0	0	0	0	0	0	0	0	0	0	0	0	186666	211423	0
1651053513224	38.552	-15.128	-996.984	0.35	-0.35	0.35	162	280.5	43.5	0	0	0	0	0	0	0	0	0	0	0	0	0	0	0	0	0	0	186686	211454	0
1651053513234	52.704	-7.808	-991.128	0.42	-0.28	0.42	165	277.5	43.5	0	0	0	0	0	0	0	0	0	0	0	0	0	0	0	0	0	0	186673	211456	0
1651053513244	40.504	-9.272	-993.08	0.35	-0.21	0.35	171	283.5	42	0	0	0	0	0	0	0	0	0	0	0	0	0	0	0	0	0	0	186692	211476	0
1651053513254	44.408	-14.64	-994.056	-0.21	-0.28	0.35	169.5	283.5	40.5	0	0	0	0	0	0	0	0	0	0	0	0	0	0	0	0	0	0	186689	211459	0
1651053513265	53.68	-9.272	-996.496	-0.91	-0.14	0.35	169.5	279	43.5	0	0	0	0	0	0	0	0	0	0	0	0	0	0	0	0	0	0	186689	211465	0
1651053513275	46.848	-15.128	-996.496	-0.91	-0.21	0.35	162	282	43.5	0	0	0	0	0	0	0	0	0	0	0	0	0	0	0	0	0	0	186684	211446	0
1651053513285	47.336	-1.952	-996.496	0.21	-0.21	0.28	163.5	285	43.5	0	0	0	0	0	0	0	0	0	0	0	0	0	0	0	0	0	0	186679	211420	0
1651053513295	46.848	-5.368	-994.544	1.47	-0.21	0.42	168	280.5	43.5	0	0	0	0	0	0	0	0	0	0	0	0	0	0	0	0	0	0	186675	211432	0
1651053513305	52.704	-12.2	-995.52	2.24	-0.35	0.35	165	282	46.5	0	0	0	0	0	0	0	0	0	0	0	0	0	0	0	0	0	0	186677	211440	0
1651053513315	44.408	-14.64	-991.616	2.24	-0.42	0.35	166.5	283.5	45	0	0	0	0	0	0	0	0	0	0	0	0	0	0	0	0	0	0	186668	211456	0
1651053513325	51.728	-10.248	-991.616	1.4	-0.28	0.35	169.5	279	40.5	0	0	0	0	0	0	0	0	0	0	0	0	0	0	0	0	0	0	186675	211474	0
1651053513335	51.24	-11.224	-994.544	0.07	-0.21	0.28	174	283.5	40.5	0	0	0	0	0	0	0	0	0	0	0	0	0	0	0	0	0	0	186661	211456	0
1651053513345	38.064	-12.688	-996.984	-0.49	-0.28	0.28	172.5	282	39	0	0	0	0	0	0	0	0	0	0	0	0	0	0	0	0	0	0	186660	211449	0
1651053513355	56.12	-10.736	-1000.888	-0.35	-0.28	0.28	171	280.5	37.5	0	0	0	0	0	0	0	0	0	0	0	0	0	0	0	0	0	0	186637	211409	0
1651053513365	42.944	-6.832	-995.032	0.14	-0.28	0.28	169.5	282	43.5	0	0	0	0	0	0	0	0	0	0	0	0	0	0	0	0	0	0	186620	211385	0
1651053513375	54.168	-14.152	-988.2	1.54	-0.21	0.42	166.5	277.5	45	0	0	0	0	0	0	0	0	0	0	0	0	0	0	0	0	0	0	186593	211339	0
1651053513385	53.68	-10.248	-994.544	1.33	-0.35	0.42	166.5	277.5	46.5	0	0	0	0	0	0	0	0	0	0	0	0	0	0	0	0	0	0	186579	211276	0
1651053513395	49.776	-9.76	-997.472	0.98	-0.28	0.28	166.5	279	43.5	0	0	0	0	0	0	0	0	0	0	0	0	0	0	0	0	0	0	186539	211197	0
1651053513405	50.752	-15.128	-995.032	0	-0.21	0.35	169.5	279	45	0	0	0	0	0	0	0	0	0	0	0	0	0	0	0	0	0	0	186500	211117	0
1651053513415	53.192	-12.688	-992.592	-0.21	-0.14	0.35	169.5	277.5	45	0	0	0	0	0	0	0	0	0	0	0	0	0	0	0	0	0	0	186480	211070	0
1651053513425	43.92	-9.76	-998.936	0.07	-0.21	0.35	169.5	280.5	43.5	0	0	0	0	0	0	0	0	0	0	0	0	0	0	0	0	0	0	186459	211021	0
1651053513435	50.264	-14.152	-994.544	0.49	-0.35	0.35	166.5	282	45	0	0	0	0	0	0	0	0	0	0	0	0	0	0	0	0	0	0	186437	210995	0
1651053513445	51.728	-13.176	-992.592	0.77	-0.28	0.42	162	280.5	43.5	0	0	0	0	0	0	0	0	0	0	0	0	0	0	0	0	0	0	186414	210996	0
1651053513455	52.704	-13.176	-991.128	0.35	-0.35	0.28	163.5	280.5	45	0	0	0	0	0	0	0	0	0	0	0	0	0	0	0	0	0	0	186399	211001	0
1651053513465	45.872	-13.176	-995.52	0.07	-0.28	0.42	165	283.5	43.5	0	0	0	0	0	0	0	0	0	0	0	0	0	0	0	0	0	0	186403	211003	0
1651053513475	42.456	-2.44	-996.984	0.28	-0.21	0.42	166.5	286.5	42	0	0	0	0	0	0	0	0	0	0	0	0	0	0	0	0	0	0	186393	211006	0
1651053513485	39.528	-6.832	-1002.84	0.91	-0.35	0.42	168	283.5	36	0	0	0	0	0	0	0	0	0	0	0	0	0	0	0	0	0	0	186384	211017	0
1651053513495	56.608	-15.616	-994.056	0.21	-0.28	0.42	169.5	283.5	33	0	0	0	0	0	0	0	0	0	0	0	0	0	0	0	0	0	0	186379	211030	0
1651053513505	64.416	-18.056	-992.104	-0.49	-0.14	0.42	165	286.5	40.5	0	0	0	0	0	0	0	0	0	0	0	0	0	0	0	0	0	0	186356	211032	0
1651053513515	42.456	-13.664	-996.008	-0.77	-0.14	0.35	166.5	282	42	0	0	0	0	0	0	0	0	0	0	0	0	0	0	0	0	0	0	186343	210996	0
1651053513525	51.24	-18.544	-1003.816	0.07	-0.21	0.28	168	279	34.5	0	0	0	0	0	0	0	0	0	0	0	0	0	0	0	0	0	0	186296	210909	0
1651053513535	40.992	-8.296	-993.568	0.56	-0.21	0.42	168	276	36	0	0	0	0	0	0	0	0	0	0	0	0	0	0	0	0	0	0	186248	210836	0
1651053513545	42.944	-13.176	-993.08	0.42	-0.35	0.28	174	279	42	0	0	0	0	0	0	0	0	0	0	0	0	0	0	0	0	0	0	186195	210775	0
1651053513555	43.92	-21.96	-995.032	-0.21	-0.28	0.35	175.5	285	43.5	0	0	0	0	0	0	0	0	0	0	0	0	0	0	0	0	0	0	186128	210689	0
1651053513565	50.264	-5.856	-992.592	-0.14	-0.21	0.49	168	282	43.5	0	0	0	0	0	0	0	0	0	0	0	0	0	0	0	0	0	0	186087	210629	0
1651053513575	49.288	-9.272	-995.032	-0.35	-0.28	0.42	162	279	43.5	0	0	0	0	0	0	0	0	0	0	0	0	0	0	0	0	0	0	186034	210572	0
1651053513585	52.216	-3.904	-992.592	-0.7	-0.28	0.28	168	276	46.5	0	0	0	0	0	0	0	0	0	0	0	0	0	0	0	0	0	0	186007	210535	0
1651053513595	40.504	-14.64	-992.592	-0.49	-0.21	0.35	172.5	277.5	48	0	0	0	0	0	0	0	0	0	0	0	0	0	0	0	0	0	0	186009	210535	0
1651053513605	45.384	-5.856	-996.496	0.28	-0.28	0.28	169.5	280.5	48	0	0	0	0	0	0	0	0	0	0	0	0	0	0	0	0	0	0	186013	210517	0
1651053513615	49.776	-14.152	-998.936	0.42	-0.35	0.35	169.5	277.5	43.5	0	0	0	0	0	0	0	0	0	0	0	0	0	0	0	0	0	0	185998	210516	0
1651053513625	44.408	-8.784	-994.056	0.21	-0.21	0.35	166.5	276	40.5	0	0	0	0	0	0	0	0	0	0	0	0	0	0	0	0	0	0	186007	210525	0
1651053513635	55.144	-10.736	-992.592	-0.28	-0.21	0.35	162	283.5	39	0	0	0	0	0	0	0	0	0	0	0	0	0	0	0	0	0	0	185994	210529	0
1651053513645	43.432	-9.272	-994.544	0.07	-0.21	0.35	171	288	42	0	0	0	0	0	0	0	0	0	0	0	0	0	0	0	0	0	0	185994	210567	0
1651053513655	42.456	-8.296	-1002.84	0.28	-0.21	0.35	180	280.5	40.5	0	0	0	0	0	0	0	0	0	0	0	0	0	0	0	0	0	0	185982	210567	0
1651053513665	49.776	-7.32	-993.08	0.49	-0.28	0.35	175.5	276	39	0	0	0	0	0	0	0	0	0	0	0	0	0	0	0	0	0	0	185983	210575	0
1651053513675	51.24	-11.712	-996.984	0.63	-0.21	0.35	169.5	279	40.5	0	0	0	0	0	0	0	0	0	0	0	0	0	0	0	0	0	0	185982	210556	0
1651053513685	51.728	-8.296	-993.08	0.63	-0.28	0.42	172.5	279	37.5	0	0	0	0	0	0	0	0	0	0	0	0	0	0	0	0	0	0	185962	210547	0
1651053513695	49.776	-6.832	-998.448	0.35	-0.21	0.35	171	279	40.5	0	0	0	0	0	0	0	0	0	0	0	0	0	0	0	0	0	0	185967	210528	0
1651053513705	44.408	-17.08	-989.664	0.14	-0.21	0.28	162	277.5	48	0	0	0	0	0	0	0	0	0	0	0	0	0	0	0	0	0	0	185962	210521	0
1651053513715	51.728	-8.784	-993.568	-0.14	-0.28	0.42	168	273	48	0	0	0	0	0	0	0	0	0	0	0	0	0	0	0	0	0	0	185966	210514	0
1651053513725	46.36	-6.344	-998.448	-0.14	-0.28	0.35	172.5	274.5	40.5	0	0	0	0	0	0	0	0	0	0	0	0	0	0	0	0	0	0	185941	210494	0
1651053513735	47.824	-13.664	-997.96	0.21	-0.28	0.42	168	279	42	0	0	0	0	0	0	0	0	0	0	0	0	0	0	0	0	0	0	185931	210484	0
1651053513745	47.824	-13.176	-991.616	0.28	-0.28	0.42	162	276	43.5	0	0	0	0	0	0	0	0	0	0	0	0	0	0	0	0	0	0	185931	210493	0
1651053513755	44.896	-12.2	-996.984	0.42	-0.14	0.42	162	274.5	40.5	0	0	0	0	0	0	0	0	0	0	0	0	0	0	0	0	0	0	185904	210479	0
1651053513765	39.528	-5.856	-995.032	0.35	-0.21	0.35	168	277.5	46.5	0	0	0	0	0	0	0	0	0	0	0	0	0	0	0	0	0	0	185892	210463	0
1651053513775	56.12	-5.368	-997.96	0.42	-0.21	0.42	169.5	280.5	43.5	0	0	0	0	0	0	0	0	0	0	0	0	0	0	0	0	0	0	185883	210445	0
1651053513785	53.192	-3.416	-998.448	0.49	-0.28	0.35	169.5	282	42	0	0	0	0	0	0	0	0	0	0	0	0	0	0	0	0	0	0	185873	210443	0
1651053513795	51.24	-12.2	-991.616	0.42	-0.28	0.28	165	282	46.5	0	0	0	0	0	0	0	0	0	0	0	0	0	0	0	0	0	0	185864	210457	0
1651053513805	51.24	-4.88	-999.912	0.28	-0.28	0.35	168	282	49.5	0	0	0	0	0	0	0	0	0	0	0	0	0	0	0	0	0	0	185872	210473	0
1651053513815	52.704	-9.272	-995.032	0.21	-0.21	0.35	166.5	283.5	42	0	0	0	0	0	0	0	0	0	0	0	0	0	0	0	0	0	0	185889	210512	0
1651053513825	43.432	-9.272	-995.52	0.07	-0.28	0.35	168	282	43.5	0	0	0	0	0	0	0	0	0	0	0	0	0	0	0	0	0	0	185903	210541	0
1651053513835	54.656	-9.76	-990.152	-0.07	-0.21	0.28	169.5	283.5	49.5	0	0	0	0	0	0	0	0	0	0	0	0	0	0	0	0	0	0	185925	210587	0
1651053513845	48.312	-6.832	-996.496	-0.28	-0.21	0.28	168	282	48	0	0	0	0	0	0	0	0	0	0	0	0	0	0	0	0	0	0	185944	210628	0
1651053513855	41.48	-4.88	-996.496	-0.07	-0.28	0.35	165	276	45	0	0	0	0	0	0	0	0	0	0	0	0	0	0	0	0	0	0	185968	210674	0
1651053513865	50.752	-7.808	-992.104	0.07	-0.28	0.35	166.5	279	40.5	0	0	0	0	0	0	0	0	0	0	0	0	0	0	0	0	0	0	186002	210744	0
1651053513875	58.56	-5.368	-991.128	0.77	-0.14	0.35	166.5	280.5	37.5	0	0	0	0	0	0	0	0	0	0	0	0	0	0	0	0	0	0	186029	210812	0
1651053513885	53.68	-15.616	-991.128	0.77	-0.35	0.35	166.5	277.5	42	0	0	0	0	0	0	0	0	0	0	0	0	0	0	0	0	0	0	186066	210853	0
1651053513895	46.848	-3.416	-990.152	0.28	-0.21	0.42	165	274.5	46.5	0	0	0	0	0	0	0	0	0	0	0	0	0	0	0	0	0	0	186078	210878	0
1651053513905	50.264	-15.616	-989.664	0	-0.28	0.35	162	270	46.5	0	0	0	0	0	0	0	0	0	0	0	0	0	0	0	0	0	0	186085	210889	0
1651053513915	47.336	-12.688	-991.616	-0.14	-0.35	0.35	162	276	42	0	0	0	0	0	0	0	0	0	0	0	0	0	0	0	0	0	0	186098	210900	0
1651053513925	39.528	-12.2	-996.984	0.07	-0.28	0.35	157.5	279	42	0	0	0	0	0	0	0	0	0	0	0	0	0	0	0	0	0	0	186125	210957	0
1651053513935	45.384	-5.856	-998.448	0.21	-0.21	0.35	159	279	42	0	0	0	0	0	0	0	0	0	0	0	0	0	0	0	0	0	0	186135	210980	0
1651053513945	42.944	-11.712	-994.544	0.28	-0.28	0.42	171	280.5	40.5	0	0	0	0	0	0	0	0	0	0	0	0	0	0	0	0	0	0	186140	210994	0
1651053513955	47.824	-10.736	-994.544	0.49	-0.35	0.35	174	282	45	0	0	0	0	0	0	0	0	0	0	0	0	0	0	0	0	0	0	186138	210993	0
1651053513965	43.432	1.952	-994.056	0.49	-0.28	0.42	169.5	280.5	40.5	0	0	0	0	0	0	0	0	0	0	0	0	0	0	0	0	0	0	186135	210973	0
1651053513975	46.848	-11.224	-994.544	0.21	-0.28	0.35	169.5	279	39	0	0	0	0	0	0	0	0	0	0	0	0	0	0	0	0	0	0	186127	210981	0
1651053513985	41.48	-6.344	-989.664	0.14	-0.28	0.42	172.5	283.5	46.5	0	0	0	0	0	0	0	0	0	0	0	0	0	0	0	0	0	0	186139	210993	0
1651053513995	54.656	-16.104	-996.496	-0.14	-0.28	0.42	169.5	283.5	46.5	0	0	0	0	0	0	0	0	0	0	0	0	0	0	0	0	0	0	186141	211004	0
1651053514005	41.968	-4.88	-997.472	-0.21	-0.21	0.35	169.5	279	49.5	0	0	0	0	0	0	0	0	0	0	0	0	0	0	0	0	0	0	186150	210991	0
1651053514015	48.312	-7.32	-998.936	0.21	-0.21	0.35	165	279	48	0	0	0	0	0	0	0	0	0	0	0	0	0	0	0	0	0	0	186163	211004	0
1651053514025	48.312	-2.44	-998.448	0.63	-0.21	0.42	165	280.5	45	0	0	0	0	0	0	0	0	0	0	0	0	0	0	0	0	0	0	186147	210974	0
1651053514035	55.632	-10.248	-997.472	0.91	-0.21	0.28	168	280.5	43.5	0	0	0	0	0	0	0	0	0	0	0	0	0	0	0	0	0	0	186131	210967	0
