Timestamp	Acc.X	Acc.Y	Acc.Z	Gyro.X	Gyro.Y	Gyro.Z	Magn.X	Magn.Y	Magn.Z	Distance.x	Distance.y	P.0	P.1	P.2	P.3	P.4	P.5	P.6	P.7	P.8	P.9	P.10	P.11	P.12	P.13	P.14	P.15	PPG_RED.	PPG_IR.	PPG_GREEN.
1651053504016	199.104	1239.52	217.648	-4.48	0.42	0	-145.5	-540	-241.5	0	0	0	0	0	0	0	0	0	0	0	0	0	0	0	0	0	0	16376	1328	0
1651053504026	261.08	1009.672	184.464	-17.22	43.12	43.61	-352.5	-294	-423	0	0	0	0	0	0	0	0	0	0	0	0	0	0	0	0	0	0	1224	1314	0
1651053504036	222.04	886.696	146.4	-21.63	79.1	91.07	-351	-295.5	-433.5	0	0	0	0	0	0	0	0	0	0	0	0	0	0	0	0	0	0	1224	1302	0
1651053504046	241.56	863.272	267.912	-53.27	119.77	139.86	-339	-298.5	-442.5	0	0	0	0	0	0	0	0	0	0	0	0	0	0	0	0	0	0	1226	1301	0
1651053504056	310.856	795.44	392.352	-63.07	130.97	154.42	-327	-307.5	-456	0	0	0	0	0	0	0	0	0	0	0	0	0	0	0	0	0	0	1231	1315	0
1651053504066	337.696	737.368	411.872	-46.34	120.89	168.49	-310.5	-315	-466.5	0	0	0	0	0	0	0	0	0	0	0	0	0	0	0	0	0	0	1226	1308	0
1651053504076	358.192	715.896	571.448	-29.05	123.06	178.5	-298.5	-316.5	-475.5	0	0	0	0	0	0	0	0	0	0	0	0	0	0	0	0	0	0	1227	1314	0
1651053504086	511.424	554.856	543.632	-21.56	126.7	181.37	-283.5	-321	-483	0	0	0	0	0	0	0	0	0	0	0	0	0	0	0	0	0	0	1235	1322	0
1651053504096	529.48	559.736	740.784	-36.19	120.12	183.75	-262.5	-322.5	-496.5	0	0	0	0	0	0	0	0	0	0	0	0	0	0	0	0	0	0	1238	1318	0
1651053504106	628.544	447.984	725.168	-43.96	117.18	179.9	-250.5	-319.5	-511.5	0	0	0	0	0	0	0	0	0	0	0	0	0	0	0	0	0	0	1239	1317	0
1651053504116	626.592	453.84	753.472	-42	109.13	173.95	-234	-319.5	-519	0	0	0	0	0	0	0	0	0	0	0	0	0	0	0	0	0	0	1234	1330	0
1651053504126	648.064	429.44	757.864	-38.15	95.06	166.81	-223.5	-324	-528	0	0	0	0	0	0	0	0	0	0	0	0	0	0	0	0	0	0	1233	1336	0
1651053504136	683.688	409.432	738.832	-36.05	86.24	157.85	-211.5	-328.5	-537	0	0	0	0	0	0	0	0	0	0	0	0	0	0	0	0	0	0	1241	1332	0
1651053504146	683.2	390.888	719.312	-24.64	76.02	151.2	-190.5	-330	-541.5	0	0	0	0	0	0	0	0	0	0	0	0	0	0	0	0	0	0	1239	1333	0
1651053504156	720.288	357.704	739.32	-7.21	67.13	148.82	-177	-328.5	-546	0	0	0	0	0	0	0	0	0	0	0	0	0	0	0	0	0	0	1240	1341	0
1651053504166	732.488	336.232	749.08	7.28	62.72	147.49	-166.5	-325.5	-552	0	0	0	0	0	0	0	0	0	0	0	0	0	0	0	0	0	0	1241	1347	0
1651053504176	740.296	304.512	751.52	25.9	51.94	139.93	-156	-321	-559.5	0	0	0	0	0	0	0	0	0	0	0	0	0	0	0	0	0	0	1242	1346	0
1651053504186	765.184	330.376	756.4	50.75	40.25	126.14	-145.5	-318	-570	0	0	0	0	0	0	0	0	0	0	0	0	0	0	0	0	0	0	1242	1337	0
1651053504196	761.28	352.824	809.592	40.74	43.26	159.53	-135	-321	-573	0	0	0	0	0	0	0	0	0	0	0	0	0	0	0	0	0	0	1244	1353	0
1651053504206	545.584	136.64	824.72	36.4	77.28	215.74	-126	-324	-570	0	0	0	0	0	0	0	0	0	0	0	0	0	0	0	0	0	0	1252	1358	0
1651053504216	767.624	269.376	726.632	32.76	62.58	174.23	-111	-321	-574.5	0	0	0	0	0	0	0	0	0	0	0	0	0	0	0	0	0	0	1252	1346	0
1651053504226	645.624	230.824	769.088	11.06	57.75	147.42	-93	-318	-577.5	0	0	0	0	0	0	0	0	0	0	0	0	0	0	0	0	0	0	1260	1345	0
1651053504236	691.984	165.92	703.696	5.53	54.46	138.81	-81	-312	-586.5	0	0	0	0	0	0	0	0	0	0	0	0	0	0	0	0	0	0	1251	1352	0
1651053504246	673.928	205.936	742.248	6.09	51.94	130.76	-78	-307.5	-597	0	0	0	0	0	0	0	0	0	0	0	0	0	0	0	0	0	0	1255	1354	0
1651053504256	656.36	246.928	748.104	13.58	55.02	131.25	-69	-306	-598.5	0	0	0	0	0	0	0	0	0	0	0	0	0	0	0	0	0	0	1258	1353	0
1651053504266	613.416	259.128	925.248	50.12	85.05	147.84	-55.5	-306	-606	0	0	0	0	0	0	0	0	0	0	0	0	0	0	0	0	0	0	1256	1352	0
1651053504276	667.096	271.816	846.192	69.79	123.27	175.35	-46.5	-300	-613.5	0	0	0	0	0	0	0	0	0	0	0	0	0	0	0	0	0	0	1259	1360	0
1651053504286	727.608	242.536	846.68	80.29	110.95	187.88	-39	-297	-619.5	0	0	0	0	0	0	0	0	0	0	0	0	0	0	0	0	0	0	1264	1357	0
1651053504296	779.824	179.096	845.216	77.35	91.28	170.45	-27	-286.5	-627	0	0	0	0	0	0	0	0	0	0	0	0	0	0	0	0	0	0	1253	1363	0
1651053504306	765.184	185.928	803.736	63.7	71.19	138.67	-15	-276	-634.5	0	0	0	0	0	0	0	0	0	0	0	0	0	0	0	0	0	0	1258	1352	0
1651053504316	736.392	196.176	735.416	41.16	55.02	102.2	-10.5	-274.5	-643.5	0	0	0	0	0	0	0	0	0	0	0	0	0	0	0	0	0	0	1257	1370	0
1651053504326	686.128	206.424	703.208	20.93	41.86	79.45	-7.5	-267	-649.5	0	0	0	0	0	0	0	0	0	0	0	0	0	0	0	0	0	0	1251	1371	0
1651053504336	654.896	202.032	695.4	3.99	40.18	76.09	-3	-259.5	-651	0	0	0	0	0	0	0	0	0	0	0	0	0	0	0	0	0	0	1257	1356	0
1651053504346	639.768	211.304	725.656	-10.15	46.34	75.95	6	-253.5	-652.5	0	0	0	0	0	0	0	0	0	0	0	0	0	0	0	0	0	0	1267	1360	0
1651053504356	658.8	184.464	773.968	-27.86	48.58	72.03	16.5	-253.5	-657	0	0	0	0	0	0	0	0	0	0	0	0	0	0	0	0	0	0	1263	1356	0
1651053504366	675.88	195.2	854.976	-45.57	47.32	69.65	24	-249	-661.5	0	0	0	0	0	0	0	0	0	0	0	0	0	0	0	0	0	0	1263	1360	0
1651053504376	673.44	82.96	863.76	-56	45.85	71.19	28.5	-240	-661.5	0	0	0	0	0	0	0	0	0	0	0	0	0	0	0	0	0	0	1264	1363	0
1651053504386	694.912	56.608	933.544	-55.44	43.47	72.66	30	-237	-666	0	0	0	0	0	0	0	0	0	0	0	0	0	0	0	0	0	0	1268	1356	0
1651053504396	694.912	56.12	911.584	-47.25	30.17	73.08	42	-234	-669	0	0	0	0	0	0	0	0	0	0	0	0	0	0	0	0	0	0	1269	1370	0
1651053504406	691.984	60.024	885.232	-39.27	20.93	72.59	49.5	-232.5	-669	0	0	0	0	0	0	0	0	0	0	0	0	0	0	0	0	0	0	1271	1370	0
1651053504416	682.712	72.224	867.176	-23.8	11.76	69.79	48	-232.5	-664.5	0	0	0	0	0	0	0	0	0	0	0	0	0	0	0	0	0	0	1268	1361	0
1651053504426	667.584	81.984	819.352	-9.31	7.28	66.08	55.5	-226.5	-663	0	0	0	0	0	0	0	0	0	0	0	0	0	0	0	0	0	0	1264	1366	0
1651053504436	651.48	81.496	791.048	5.46	4.69	62.37	70.5	-220.5	-669	0	0	0	0	0	0	0	0	0	0	0	0	0	0	0	0	0	0	1273	1376	0
1651053504446	607.072	93.696	772.504	14.42	8.4	56.35	70.5	-220.5	-670.5	0	0	0	0	0	0	0	0	0	0	0	0	0	0	0	0	0	0	1283	1381	0
1651053504456	610.976	71.736	752.496	9.87	17.36	43.96	66	-216	-673.5	0	0	0	0	0	0	0	0	0	0	0	0	0	0	0	0	0	0	1287	1423	0
1651053504466	609.512	53.192	776.896	2.45	18.97	34.86	66	-208.5	-672	0	0	0	0	0	0	0	0	0	0	0	0	0	0	0	0	0	0	1305	1454	0
1651053504476	607.56	22.448	798.368	2.94	19.39	33.88	72	-210	-673.5	0	0	0	0	0	0	0	0	0	0	0	0	0	0	0	0	0	0	1318	1487	0
1651053504486	614.392	15.128	813.984	4.27	18.97	33.81	75	-214.5	-675	0	0	0	0	0	0	0	0	0	0	0	0	0	0	0	0	0	0	1338	1525	0
1651053504496	607.56	56.608	798.368	1.96	17.01	33.88	81	-208.5	-673.5	0	0	0	0	0	0	0	0	0	0	0	0	0	0	0	0	0	0	1341	1535	0
1651053504506	577.792	49.776	796.904	0.07	16.1	35.7	78	-205.5	-678	0	0	0	0	0	0	0	0	0	0	0	0	0	0	0	0	0	0	1342	1560	0
1651053504516	567.056	41.968	809.104	-1.33	18.97	38.99	79.5	-201	-681	0	0	0	0	0	0	0	0	0	0	0	0	0	0	0	0	0	0	1344	1573	0
1651053504526	607.56	31.72	813.984	-3.01	20.37	40.32	84	-195	-676.5	0	0	0	0	0	0	0	0	0	0	0	0	0	0	0	0	0	0	1341	1595	0
1651053504536	630.496	21.472	827.648	-0.21	13.79	36.96	87	-196.5	-678	0	0	0	0	0	0	0	0	0	0	0	0	0	0	0	0	0	0	1328	1615	0
1651053504546	600.728	14.152	806.176	8.05	9.66	34.93	91.5	-198	-679.5	0	0	0	0	0	0	0	0	0	0	0	0	0	0	0	0	0	0	1316	1612	0
1651053504556	588.528	42.456	774.944	18.13	10.36	37.31	91.5	-192	-681	0	0	0	0	0	0	0	0	0	0	0	0	0	0	0	0	0	0	1310	1616	0
1651053504566	590.48	48.8	775.432	23.38	10.01	40.81	94.5	-190.5	-685.5	0	0	0	0	0	0	0	0	0	0	0	0	0	0	0	0	0	0	1311	1626	0
1651053504576	598.288	36.112	801.296	23.8	8.96	42.35	93	-187.5	-682.5	0	0	0	0	0	0	0	0	0	0	0	0	0	0	0	0	0	0	1327	1657	0
1651053504586	598.776	16.104	811.056	21.14	10.99	43.47	94.5	-181.5	-685.5	0	0	0	0	0	0	0	0	0	0	0	0	0	0	0	0	0	0	1328	1672	0
1651053504596	594.384	-45.872	820.328	18.2	15.75	51.45	99	-181.5	-693	0	0	0	0	0	0	0	0	0	0	0	0	0	0	0	0	0	0	1330	1679	0
1651053504606	610.976	-39.528	838.384	20.65	22.33	58.03	96	-178.5	-694.5	0	0	0	0	0	0	0	0	0	0	0	0	0	0	0	0	0	0	1321	1661	0
1651053504616	636.84	-33.184	846.68	22.26	26.6	58.38	96	-178.5	-691.5	0	0	0	0	0	0	0	0	0	0	0	0	0	0	0	0	0	0	1307	1622	0
1651053504626	641.232	-48.312	854.488	22.61	28.56	57.05	102	-174	-691.5	0	0	0	0	0	0	0	0	0	0	0	0	0	0	0	0	0	0	1292	1613	0
1651053504636	607.072	-13.176	847.656	29.47	35.07	60.41	111	-166.5	-693	0	0	0	0	0	0	0	0	0	0	0	0	0	0	0	0	0	0	1299	1608	0
1651053504646	611.464	31.232	813.984	45.29	43.19	69.09	108	-159	-694.5	0	0	0	0	0	0	0	0	0	0	0	0	0	0	0	0	0	0	1310	1610	0
1651053504656	621.224	61.976	784.704	48.65	43.19	72.03	103.5	-159	-699	0	0	0	0	0	0	0	0	0	0	0	0	0	0	0	0	0	0	1330	1622	0
1651053504666	601.704	26.84	887.672	34.79	32.2	70	109.5	-156	-703.5	0	0	0	0	0	0	0	0	0	0	0	0	0	0	0	0	0	0	1347	1635	0
1651053504676	590.48	37.088	860.344	32.69	30.45	68.67	109.5	-147	-706.5	0	0	0	0	0	0	0	0	0	0	0	0	0	0	0	0	0	0	1356	1648	0
1651053504686	584.624	25.864	805.2	33.67	31.99	65.52	109.5	-142.5	-714	0	0	0	0	0	0	0	0	0	0	0	0	0	0	0	0	0	0	1359	1652	0
1651053504696	590.968	-42.456	873.52	15.75	27.93	67.76	111	-133.5	-721.5	0	0	0	0	0	0	0	0	0	0	0	0	0	0	0	0	0	0	1357	1643	0
1651053504706	567.056	-86.376	933.544	4.83	29.68	69.44	112.5	-132	-723	0	0	0	0	0	0	0	0	0	0	0	0	0	0	0	0	0	0	1344	1618	0
1651053504716	553.392	-82.96	919.88	-7	27.44	65.87	120	-129	-720	0	0	0	0	0	0	0	0	0	0	0	0	0	0	0	0	0	0	1336	1588	0
1651053504726	541.68	-95.648	853.024	-19.88	28.28	58.24	118.5	-121.5	-723	0	0	0	0	0	0	0	0	0	0	0	0	0	0	0	0	0	0	1330	1557	0
1651053504736	546.072	-49.288	859.856	-28.84	28.28	49.35	120	-118.5	-726	0	0	0	0	0	0	0	0	0	0	0	0	0	0	0	0	0	0	1321	1528	0
1651053504746	533.872	1.952	820.328	-20.79	29.19	47.46	127.5	-115.5	-718.5	0	0	0	0	0	0	0	0	0	0	0	0	0	0	0	0	0	0	1310	1500	0
1651053504756	533.384	10.248	820.328	-8.68	27.44	55.79	127.5	-115.5	-714	0	0	0	0	0	0	0	0	0	0	0	0	0	0	0	0	0	0	1287	1479	0
1651053504766	547.536	-15.616	860.832	-3.29	29.19	61.32	133.5	-111	-718.5	0	0	0	0	0	0	0	0	0	0	0	0	0	0	0	0	0	0	1286	1450	0
1651053504776	562.176	-59.536	876.936	-2.31	29.26	56.7	138	-102	-720	0	0	0	0	0	0	0	0	0	0	0	0	0	0	0	0	0	0	1271	1420	0
1651053504786	516.304	-114.192	847.656	-7.63	27.86	54.95	142.5	-99	-723	0	0	0	0	0	0	0	0	0	0	0	0	0	0	0	0	0	0	1243	1391	0
1651053504796	480.68	-146.888	788.12	-21.49	41.16	58.73	142.5	-97.5	-718.5	0	0	0	0	0	0	0	0	0	0	0	0	0	0	0	0	0	0	1237	1360	0
1651053504806	497.272	-119.56	780.8	-22.54	48.02	56.35	147	-87	-720	0	0	0	0	0	0	0	0	0	0	0	0	0	0	0	0	0	0	1215	1335	0
1651053504816	478.24	-141.032	770.064	-21.98	46.9	54.04	150	-79.5	-718.5	0	0	0	0	0	0	0	0	0	0	0	0	0	0	0	0	0	0	1209	1304	0
1651053504826	468.968	-146.4	778.848	-22.19	46.83	56.14	151.5	-78	-720	0	0	0	0	0	0	0	0	0	0	0	0	0	0	0	0	0	0	1195	1286	0
1651053504836	456.768	-203.008	812.52	-25.76	48.37	54.88	157.5	-76.5	-724.5	0	0	0	0	0	0	0	0	0	0	0	0	0	0	0	0	0	0	1191	1271	0
1651053504846	461.648	-190.32	842.288	-28.35	50.47	54.11	166.5	-75	-730.5	0	0	0	0	0	0	0	0	0	0	0	0	0	0	0	0	0	0	1187	1254	0
1651053504857	457.744	-178.12	835.944	-36.26	52.85	56.14	175.5	-66	-733.5	0	0	0	0	0	0	0	0	0	0	0	0	0	0	0	0	0	0	1172	1237	0
1651053504867	447.496	-189.832	877.912	-46.06	52.43	53.55	178.5	-57	-730.5	0	0	0	0	0	0	0	0	0	0	0	0	0	0	0	0	0	0	1173	1221	0
1651053504877	448.96	-181.048	874.496	-43.05	50.19	52.08	181.5	-51	-732	0	0	0	0	0	0	0	0	0	0	0	0	0	0	0	0	0	0	1165	1210	0
1651053504887	427.488	-149.328	917.44	-44.38	49.21	47.53	186	-46.5	-729	0	0	0	0	0	0	0	0	0	0	0	0	0	0	0	0	0	0	1170	1216	0
1651053504897	456.28	-169.336	930.128	-45.01	49.91	43.26	195	-43.5	-726	0	0	0	0	0	0	0	0	0	0	0	0	0	0	0	0	0	0	1166	1205	0
1651053504907	405.04	-170.8	857.416	-39.69	49.98	37.24	199.5	-39	-723	0	0	0	0	0	0	0	0	0	0	0	0	0	0	0	0	0	0	1161	1200	0
1651053504917	362.584	-189.344	834.48	-39.83	50.47	38.01	199.5	-24	-720	0	0	0	0	0	0	0	0	0	0	0	0	0	0	0	0	0	0	1163	1194	0
1651053504927	345.992	-218.624	861.808	-40.25	51.03	36.96	199.5	-16.5	-723	0	0	0	0	0	0	0	0	0	0	0	0	0	0	0	0	0	0	1165	1201	0
1651053504937	337.696	-157.624	885.232	-32.2	52.64	40.04	208.5	-18	-724.5	0	0	0	0	0	0	0	0	0	0	0	0	0	0	0	0	0	0	1170	1199	0
1651053504947	364.048	-204.96	905.24	-35.7	54.11	43.54	216	-12	-720	0	0	0	0	0	0	0	0	0	0	0	0	0	0	0	0	0	0	1165	1195	0
1651053504957	334.768	-284.992	908.168	-32.9	54.46	40.53	213	-4.5	-718.5	0	0	0	0	0	0	0	0	0	0	0	0	0	0	0	0	0	0	1174	1201	0
1651053504967	327.936	-249.856	893.528	-35.98	55.44	40.53	219	7.5	-720	0	0	0	0	0	0	0	0	0	0	0	0	0	0	0	0	0	0	1172	1201	0
1651053504977	336.232	-222.528	943.304	-46.76	57.26	38.92	228	9	-718.5	0	0	0	0	0	0	0	0	0	0	0	0	0	0	0	0	0	0	1166	1192	0
1651053504987	298.168	-214.72	938.424	-55.44	64.26	30.17	234	7.5	-717	0	0	0	0	0	0	0	0	0	0	0	0	0	0	0	0	0	0	1164	1193	0
1651053504997	322.08	-177.632	934.032	-52.5	64.33	25.69	238.5	18	-712.5	0	0	0	0	0	0	0	0	0	0	0	0	0	0	0	0	0	0	1167	1194	0
1651053505007	317.2	-172.752	892.552	-39.97	57.26	26.74	243	22.5	-708	0	0	0	0	0	0	0	0	0	0	0	0	0	0	0	0	0	0	1169	1195	0
1651053505017	296.704	-202.52	917.44	-27.02	52.15	23.66	244.5	27	-709.5	0	0	0	0	0	0	0	0	0	0	0	0	0	0	0	0	0	0	1167	1196	0
1651053505027	281.576	-219.112	932.568	-15.96	46.34	22.26	247.5	34.5	-708	0	0	0	0	0	0	0	0	0	0	0	0	0	0	0	0	0	0	1169	1199	0
1651053505037	277.184	-231.8	945.744	-6.02	41.51	19.32	249	40.5	-711	0	0	0	0	0	0	0	0	0	0	0	0	0	0	0	0	0	0	1164	1196	0
1651053505047	269.864	-244.976	944.768	7.21	34.37	16.1	253.5	46.5	-715.5	0	0	0	0	0	0	0	0	0	0	0	0	0	0	0	0	0	0	1163	1213	0
1651053505057	230.336	-221.552	936.96	14.91	30.87	15.19	253.5	48	-711	0	0	0	0	0	0	0	0	0	0	0	0	0	0	0	0	0	0	1161	1214	0
1651053505067	214.232	-211.792	931.592	15.89	35.56	11.83	250.5	57	-708	0	0	0	0	0	0	0	0	0	0	0	0	0	0	0	0	0	0	1160	1213	0
1651053505077	199.592	-227.408	943.792	20.58	36.26	7.35	249	61.5	-711	0	0	0	0	0	0	0	0	0	0	0	0	0	0	0	0	0	0	1155	1232	0
1651053505087	252.784	-165.92	924.76	36.75	27.93	22.68	241.5	61.5	-712.5	0	0	0	0	0	0	0	0	0	0	0	0	0	0	0	0	0	0	1157	1235	0
1651053505097	213.256	-160.552	1088.728	29.82	35.28	2.31	240	61.5	-711	0	0	0	0	0	0	0	0	0	0	0	0	0	0	0	0	0	0	1145	1247	0
1651053505107	239.12	-234.24	1083.848	37.73	25.13	-12.95	246	61.5	-712.5	0	0	0	0	0	0	0	0	0	0	0	0	0	0	0	0	0	0	1155	1246	0
1651053505117	244.488	-181.048	985.76	41.51	26.46	-8.61	244.5	64.5	-715.5	0	0	0	0	0	0	0	0	0	0	0	0	0	0	0	0	0	0	1152	1245	0
1651053505127	273.28	-161.528	993.568	40.74	16.94	-2.94	238.5	67.5	-723	0	0	0	0	0	0	0	0	0	0	0	0	0	0	0	0	0	0	1141	1248	0
1651053505137	289.384	-113.216	858.392	28.91	25.41	-5.53	237	67.5	-727.5	0	0	0	0	0	0	0	0	0	0	0	0	0	0	0	0	0	0	1140	1260	0
1651053505147	332.816	-120.536	1061.888	26.95	25.27	-2.03	240	73.5	-729	0	0	0	0	0	0	0	0	0	0	0	0	0	0	0	0	0	0	1144	1248	0
1651053505157	313.296	-69.296	977.952	36.96	18.48	-0.98	237	75	-730.5	0	0	0	0	0	0	0	0	0	0	0	0	0	0	0	0	0	0	1137	1236	0
1651053505167	297.192	-117.12	997.472	30.52	19.25	-4.13	234	72	-729	0	0	0	0	0	0	0	0	0	0	0	0	0	0	0	0	0	0	1139	1229	0
1651053505177	316.224	-96.624	960.872	25.41	21.07	-9.87	229.5	78	-732	0	0	0	0	0	0	0	0	0	0	0	0	0	0	0	0	0	0	1131	1211	0
1651053505187	268.888	-97.112	951.112	19.04	22.96	-9.03	226.5	81	-736.5	0	0	0	0	0	0	0	0	0	0	0	0	0	0	0	0	0	0	1128	1221	0
1651053505197	273.768	-107.36	952.088	19.6	24.08	-8.12	229.5	79.5	-736.5	0	0	0	0	0	0	0	0	0	0	0	0	0	0	0	0	0	0	1127	1291	0
1651053505207	263.52	-70.272	959.408	28.21	22.75	-2.94	235.5	79.5	-736.5	0	0	0	0	0	0	0	0	0	0	0	0	0	0	0	0	0	0	1135	1521	0
1651053505217	253.272	-62.952	1001.864	29.4	24.5	2.17	237	78	-732	0	0	0	0	0	0	0	0	0	0	0	0	0	0	0	0	0	0	1369	8006	0
1651053505227	269.864	-106.872	1018.456	23.73	28.42	0.35	229.5	81	-729	0	0	0	0	0	0	0	0	0	0	0	0	0	0	0	0	0	0	29406	45796	0
1651053505237	242.048	-106.384	1020.896	18.06	26.53	-4.97	225	85.5	-733.5	0	0	0	0	0	0	0	0	0	0	0	0	0	0	0	0	0	0	49524	60224	0
1651053505247	232.288	-107.848	1020.896	15.33	27.37	-3.01	220.5	88.5	-739.5	0	0	0	0	0	0	0	0	0	0	0	0	0	0	0	0	0	0	44809	45357	0
1651053505257	234.24	-122.976	1039.928	16.24	22.61	-6.93	217.5	90	-735	0	0	0	0	0	0	0	0	0	0	0	0	0	0	0	0	0	0	27301	23745	0
1651053505267	200.08	-142.984	1047.248	15.47	16.87	-11.69	220.5	88.5	-733.5	0	0	0	0	0	0	0	0	0	0	0	0	0	0	0	0	0	0	15084	13448	0
1651053505277	172.264	-166.896	1009.672	17.92	13.72	-23.38	220.5	90	-733.5	0	0	0	0	0	0	0	0	0	0	0	0	0	0	0	0	0	0	9029	8525	0
1651053505287	192.76	-156.648	992.104	34.37	3.99	-23.59	217.5	94.5	-736.5	0	0	0	0	0	0	0	0	0	0	0	0	0	0	0	0	0	0	5911	6115	0
1651053505297	190.32	-99.064	1004.792	44.94	-3.15	-24.15	214.5	96	-744	0	0	0	0	0	0	0	0	0	0	0	0	0	0	0	0	0	0	4377	7442	0
1651053505307	192.76	-74.664	1033.096	34.58	3.43	-23.59	211.5	94.5	-744	0	0	0	0	0	0	0	0	0	0	0	0	0	0	0	0	0	0	6045	14528	0
1651053505317	238.144	-14.64	1017.48	38.36	3.5	2.66	213	91.5	-742.5	0	0	0	0	0	0	0	0	0	0	0	0	0	0	0	0	0	0	9988	16704	0
1651053505327	175.192	-88.816	1118.008	21.35	10.57	-30.38	208.5	94.5	-745.5	0	0	0	0	0	0	0	0	0	0	0	0	0	0	0	0	0	0	10445	13195	0
1651053505337	265.96	-53.192	1069.696	28.21	10.78	0.56	207	90	-744	0	0	0	0	0	0	0	0	0	0	0	0	0	0	0	0	0	0	9198	9821	0
1651053505347	153.72	-14.152	1067.744	31.92	-4.27	-24.22	202.5	88.5	-748.5	0	0	0	0	0	0	0	0	0	0	0	0	0	0	0	0	0	0	7683	7403	0
1651053505357	236.68	-8.784	1079.944	24.5	7.28	-19.88	202.5	88.5	-748.5	0	0	0	0	0	0	0	0	0	0	0	0	0	0	0	0	0	0	6318	5737	0
1651053505367	231.8	-83.936	1064.816	33.95	-2.45	-9.03	193.5	91.5	-748.5	0	0	0	0	0	0	0	0	0	0	0	0	0	0	0	0	0	0	5203	4545	0
1651053505377	193.248	-88.328	1071.648	39.48	-10.08	-17.29	192	90	-748.5	0	0	0	0	0	0	0	0	0	0	0	0	0	0	0	0	0	0	4420	3760	0
1651053505387	211.792	-29.768	1082.384	37.38	-11.48	-26.39	192	93	-754.5	0	0	0	0	0	0	0	0	0	0	0	0	0	0	0	0	0	0	3880	3246	0
1651053505397	211.304	-81.008	1054.568	35.63	-11.9	-24.92	189	96	-757.5	0	0	0	0	0	0	0	0	0	0	0	0	0	0	0	0	0	0	3575	3000	0
1651053505407	234.728	0.488	1012.112	38.08	-14.21	-20.72	186	87	-754.5	0	0	0	0	0	0	0	0	0	0	0	0	0	0	0	0	0	0	3287	2707	0
1651053505417	261.08	0.976	1029.68	30.03	-7.84	-22.96	189	88.5	-751.5	0	0	0	0	0	0	0	0	0	0	0	0	0	0	0	0	0	0	2751	2256	0
1651053505427	241.56	-17.08	1010.16	38.15	-13.86	-20.51	184.5	85.5	-753	0	0	0	0	0	0	0	0	0	0	0	0	0	0	0	0	0	0	2082	1676	0
1651053505437	239.608	-9.272	1033.096	44.94	-19.74	-22.61	180	82.5	-757.5	0	0	0	0	0	0	0	0	0	0	0	0	0	0	0	0	0	0	1647	1329	0
1651053505447	236.192	-15.128	1045.784	42.7	-18.97	-24.78	174	79.5	-754.5	0	0	0	0	0	0	0	0	0	0	0	0	0	0	0	0	0	0	1421	1156	0
1651053505457	203.008	-57.096	1039.928	45.92	-21.49	-28.63	171	72	-754.5	0	0	0	0	0	0	0	0	0	0	0	0	0	0	0	0	0	0	1290	1040	0
1651053505467	229.36	-39.528	1047.736	57.26	-29.12	-35.84	171	76.5	-759	0	0	0	0	0	0	0	0	0	0	0	0	0	0	0	0	0	0	1210	959	0
1651053505477	244	-33.672	1070.672	66.22	-37.24	-42.91	166.5	75	-759	0	0	0	0	0	0	0	0	0	0	0	0	0	0	0	0	0	0	1154	924	0
1651053505487	233.752	-148.352	1057.496	70	-44.87	-49	163.5	72	-762	0	0	0	0	0	0	0	0	0	0	0	0	0	0	0	0	0	0	1123	900	0
1651053505497	243.512	-1.464	966.728	68.6	-44.38	-43.54	160.5	67.5	-766.5	0	0	0	0	0	0	0	0	0	0	0	0	0	0	0	0	0	0	1102	880	0
1651053505507	216.672	31.232	966.24	49.21	-30.17	-51.87	150	58.5	-768	0	0	0	0	0	0	0	0	0	0	0	0	0	0	0	0	0	0	1089	880	0
1651053505517	229.848	66.368	903.288	39.55	-20.3	-51.1	141	54	-771	0	0	0	0	0	0	0	0	0	0	0	0	0	0	0	0	0	0	1080	873	0
1651053505527	263.032	113.216	827.16	40.18	-16.17	-51.66	135	51	-771	0	0	0	0	0	0	0	0	0	0	0	0	0	0	0	0	0	0	1073	878	0
1651053505537	281.576	116.632	850.584	26.67	0.42	-31.99	133.5	48	-768	0	0	0	0	0	0	0	0	0	0	0	0	0	0	0	0	0	0	1074	886	0
1651053505547	270.352	95.648	881.816	14.98	10.22	-30.73	133.5	43.5	-769.5	0	0	0	0	0	0	0	0	0	0	0	0	0	0	0	0	0	0	1076	891	0
1651053505557	323.056	91.256	919.392	3.71	23.52	-19.6	126	40.5	-769.5	0	0	0	0	0	0	0	0	0	0	0	0	0	0	0	0	0	0	1076	891	0
1651053505567	288.408	58.56	930.128	-7	32.27	-16.31	124.5	42	-772.5	0	0	0	0	0	0	0	0	0	0	0	0	0	0	0	0	0	0	1064	898	0
1651053505577	317.688	58.072	953.064	-17.85	43.33	-16.1	126	45	-772.5	0	0	0	0	0	0	0	0	0	0	0	0	0	0	0	0	0	0	1073	898	0
1651053505587	320.616	26.84	987.712	-30.45	52.15	-12.81	124.5	46.5	-769.5	0	0	0	0	0	0	0	0	0	0	0	0	0	0	0	0	0	0	1061	891	0
1651053505597	322.568	-24.4	945.256	-42.28	55.79	-13.02	129	49.5	-769.5	0	0	0	0	0	0	0	0	0	0	0	0	0	0	0	0	0	0	1057	879	0
1651053505607	267.912	19.032	1001.864	-50.61	59.78	-7.91	132	51	-765	0	0	0	0	0	0	0	0	0	0	0	0	0	0	0	0	0	0	1058	887	0
1651053505617	238.632	16.104	1078.968	-63	63.91	0	132	55.5	-763.5	0	0	0	0	0	0	0	0	0	0	0	0	0	0	0	0	0	0	1059	890	0
1651053505627	224.48	-23.424	1127.768	-69.93	64.47	0.7	136.5	60	-765	0	0	0	0	0	0	0	0	0	0	0	0	0	0	0	0	0	0	1087	895	0
1651053505637	212.768	-16.104	1152.656	-69.79	60.13	-0.42	142.5	70.5	-757.5	0	0	0	0	0	0	0	0	0	0	0	0	0	0	0	0	0	0	1170	970	0
1651053505647	200.568	16.592	1154.608	-63.28	51.03	-0.14	145.5	76.5	-754.5	0	0	0	0	0	0	0	0	0	0	0	0	0	0	0	0	0	0	1465	1202	0
1651053505657	177.144	30.256	1142.896	-55.58	39.27	1.33	148.5	78	-754.5	0	0	0	0	0	0	0	0	0	0	0	0	0	0	0	0	0	0	1905	1672	0
1651053505667	179.584	46.36	1126.792	-51.52	34.79	4.13	154.5	82.5	-751.5	0	0	0	0	0	0	0	0	0	0	0	0	0	0	0	0	0	0	1765	1354	0
1651053505677	154.696	-7.808	1105.808	-43.96	28.35	5.18	157.5	82.5	-750	0	0	0	0	0	0	0	0	0	0	0	0	0	0	0	0	0	0	1321	1002	0
1651053505687	167.384	-23.912	1110.688	-28.07	16.38	4.2	160.5	84	-748.5	0	0	0	0	0	0	0	0	0	0	0	0	0	0	0	0	0	0	1162	905	0
1651053505698	166.408	0.488	1078.968	-13.93	6.93	3.01	163.5	88.5	-745.5	0	0	0	0	0	0	0	0	0	0	0	0	0	0	0	0	0	0	1091	889	0
1651053505708	157.624	1.952	1024.8	-10.57	4.69	2.87	162	90	-745.5	0	0	0	0	0	0	0	0	0	0	0	0	0	0	0	0	0	0	1064	867	0
1651053505718	164.456	3.904	997.96	-8.82	6.58	2.03	162	88.5	-744	0	0	0	0	0	0	0	0	0	0	0	0	0	0	0	0	0	0	1048	866	0
1651053505728	177.144	3.904	955.504	-7.91	7.49	3.85	165	88.5	-747	0	0	0	0	0	0	0	0	0	0	0	0	0	0	0	0	0	0	1067	863	0
1651053505738	179.096	-17.568	960.872	-8.05	10.22	5.74	160.5	87	-745.5	0	0	0	0	0	0	0	0	0	0	0	0	0	0	0	0	0	0	1061	877	0
1651053505748	186.904	-15.616	977.464	-9.24	12.95	5.46	157.5	82.5	-750	0	0	0	0	0	0	0	0	0	0	0	0	0	0	0	0	0	0	1076	903	0
1651053505758	174.704	-23.912	991.128	-13.37	16.59	6.02	163.5	87	-748.5	0	0	0	0	0	0	0	0	0	0	0	0	0	0	0	0	0	0	1124	972	0
1651053505768	168.848	-34.16	992.104	-11.69	16.59	7.49	171	96	-744	0	0	0	0	0	0	0	0	0	0	0	0	0	0	0	0	0	0	1215	1112	0
1651053505778	178.608	-8.296	1016.992	-10.29	14.42	7.77	168	93	-742.5	0	0	0	0	0	0	0	0	0	0	0	0	0	0	0	0	0	0	1453	1506	0
1651053505788	186.416	23.912	1022.36	-10.08	12.25	9.66	168	94.5	-747	0	0	0	0	0	0	0	0	0	0	0	0	0	0	0	0	0	0	2160	2719	0
1651053505798	175.68	41.968	1017.968	-6.51	9.87	15.05	168	96	-751.5	0	0	0	0	0	0	0	0	0	0	0	0	0	0	0	0	0	0	5156	7776	0
1651053505808	172.752	15.128	1012.6	-4.76	7	19.6	165	93	-744	0	0	0	0	0	0	0	0	0	0	0	0	0	0	0	0	0	0	8358	10003	0
1651053505818	163.48	-30.256	1004.792	-12.39	13.02	23.1	168	94.5	-738	0	0	0	0	0	0	0	0	0	0	0	0	0	0	0	0	0	0	4982	6477	0
1651053505828	142.984	-61.488	1012.112	-11.62	13.51	23.59	171	94.5	-739.5	0	0	0	0	0	0	0	0	0	0	0	0	0	0	0	0	0	0	4620	6556	0
1651053505838	165.432	-73.2	1026.752	-7.42	11.34	25.69	171	97.5	-738	0	0	0	0	0	0	0	0	0	0	0	0	0	0	0	0	0	0	6324	9412	0
1651053505848	148.352	-67.344	1050.176	-3.71	7.63	21.7	172.5	103.5	-736.5	0	0	0	0	0	0	0	0	0	0	0	0	0	0	0	0	0	0	12188	16101	0
1651053505858	130.784	-48.8	1044.32	-4.62	6.65	16.94	172.5	105	-739.5	0	0	0	0	0	0	0	0	0	0	0	0	0	0	0	0	0	0	8016	11643	0
1651053505868	125.416	-47.336	1020.408	-4.76	5.74	13.3	175.5	103.5	-741	0	0	0	0	0	0	0	0	0	0	0	0	0	0	0	0	0	0	8926	12662	0
1651053505878	105.896	-43.92	1006.744	-3.99	5.11	9.52	177	106.5	-742.5	0	0	0	0	0	0	0	0	0	0	0	0	0	0	0	0	0	0	8141	11510	0
1651053505888	97.6	-48.8	1005.768	-3.99	5.6	7.42	175.5	111	-745.5	0	0	0	0	0	0	0	0	0	0	0	0	0	0	0	0	0	0	7771	10967	0
1651053505898	67.832	-59.536	1014.552	-7	6.79	3.08	174	109.5	-738	0	0	0	0	0	0	0	0	0	0	0	0	0	0	0	0	0	0	7094	10185	0
1651053505908	69.784	-25.376	981.368	-4.62	7.49	14.56	174	114	-733.5	0	0	0	0	0	0	0	0	0	0	0	0	0	0	0	0	0	0	6495	9529	0
1651053505918	55.632	-64.416	1015.528	-11.34	15.19	10.57	174	112.5	-736.5	0	0	0	0	0	0	0	0	0	0	0	0	0	0	0	0	0	0	6171	9200	0
1651053505928	72.224	-98.088	1032.608	-13.3	17.01	7.98	174	112.5	-741	0	0	0	0	0	0	0	0	0	0	0	0	0	0	0	0	0	0	6109	9159	0
1651053505938	81.008	-79.056	1038.952	-7.49	10.92	4.62	172.5	118.5	-738	0	0	0	0	0	0	0	0	0	0	0	0	0	0	0	0	0	0	6292	9311	0
1651053505948	87.352	-58.072	1012.112	-4.55	7.49	3.29	175.5	121.5	-741	0	0	0	0	0	0	0	0	0	0	0	0	0	0	0	0	0	0	6586	9546	0
1651053505958	106.384	-47.824	1029.68	-5.25	7.28	-1.05	178.5	112.5	-736.5	0	0	0	0	0	0	0	0	0	0	0	0	0	0	0	0	0	0	7003	9887	0
1651053505968	107.848	-54.168	1017.968	-5.18	5.88	-3.92	181.5	112.5	-736.5	0	0	0	0	0	0	0	0	0	0	0	0	0	0	0	0	0	0	7571	10435	0
1651053505978	76.616	-24.888	1021.384	-4.9	3.08	-7.77	181.5	123	-744	0	0	0	0	0	0	0	0	0	0	0	0	0	0	0	0	0	0	8236	11161	0
1651053505988	108.824	-32.696	1016.016	-0.07	-0.56	-5.39	177	123	-744	0	0	0	0	0	0	0	0	0	0	0	0	0	0	0	0	0	0	8924	11988	0
1651053505998	105.896	-45.384	1011.624	3.57	-2.87	-5.6	174	118.5	-742.5	0	0	0	0	0	0	0	0	0	0	0	0	0	0	0	0	0	0	9680	12947	0
1651053506008	111.264	-14.152	1007.232	9.8	-7.21	-4.27	174	117	-738	0	0	0	0	0	0	0	0	0	0	0	0	0	0	0	0	0	0	10518	13995	0
1651053506018	114.68	-9.76	1002.84	14.07	-9.1	-0.28	172.5	118.5	-733.5	0	0	0	0	0	0	0	0	0	0	0	0	0	0	0	0	0	0	11335	14971	0
1651053506028	107.848	-47.336	1001.376	12.39	-4.83	3.43	171	112.5	-738	0	0	0	0	0	0	0	0	0	0	0	0	0	0	0	0	0	0	12082	15782	0
1651053506038	112.728	-60.512	1005.768	6.3	0.56	1.68	174	108	-745.5	0	0	0	0	0	0	0	0	0	0	0	0	0	0	0	0	0	0	13223	16821	0
1651053506048	130.784	-80.52	1029.192	3.43	1.61	1.33	177	114	-744	0	0	0	0	0	0	0	0	0	0	0	0	0	0	0	0	0	0	15436	18463	0
1651053506058	142.008	-50.264	1026.752	4.83	0.07	1.82	178.5	118.5	-739.5	0	0	0	0	0	0	0	0	0	0	0	0	0	0	0	0	0	0	19434	21013	0
1651053506068	146.4	-36.6	1034.56	5.74	-2.1	1.19	169.5	117	-741	0	0	0	0	0	0	0	0	0	0	0	0	0	0	0	0	0	0	24258	23761	0
1651053506078	137.128	-40.504	1016.504	4.13	-2.66	0.07	165	118.5	-738	0	0	0	0	0	0	0	0	0	0	0	0	0	0	0	0	0	0	25041	23104	0
1651053506088	133.712	-28.792	1007.232	1.68	-0.42	-1.26	174	118.5	-736.5	0	0	0	0	0	0	0	0	0	0	0	0	0	0	0	0	0	0	21303	19848	0
1651053506098	140.544	-44.896	1008.208	3.43	-1.4	-0.98	171	118.5	-738	0	0	0	0	0	0	0	0	0	0	0	0	0	0	0	0	0	0	18234	17772	0
1651053506108	126.88	-52.704	1021.872	6.58	-4.41	-2.17	169.5	121.5	-744	0	0	0	0	0	0	0	0	0	0	0	0	0	0	0	0	0	0	16039	16555	0
1651053506118	121.024	-50.264	1037	8.12	-6.86	-3.85	168	115.5	-744	0	0	0	0	0	0	0	0	0	0	0	0	0	0	0	0	0	0	14097	15079	0
1651053506128	104.432	-70.272	1045.296	11.2	-10.99	-6.86	168	112.5	-739.5	0	0	0	0	0	0	0	0	0	0	0	0	0	0	0	0	0	0	12281	13304	0
1651053506138	107.36	-61.976	1073.112	14.42	-14.7	-10.5	172.5	111	-738	0	0	0	0	0	0	0	0	0	0	0	0	0	0	0	0	0	0	11231	12530	0
1651053506148	107.36	-71.248	1093.608	17.15	-18.62	-15.33	171	114	-739.5	0	0	0	0	0	0	0	0	0	0	0	0	0	0	0	0	0	0	10506	12070	0
1651053506158	100.528	-71.248	1083.848	23.66	-25.2	-18.2	166.5	114	-739.5	0	0	0	0	0	0	0	0	0	0	0	0	0	0	0	0	0	0	9775	11458	0
1651053506168	110.288	-66.368	1109.224	33.04	-35.21	-20.86	163.5	111	-739.5	0	0	0	0	0	0	0	0	0	0	0	0	0	0	0	0	0	0	8673	10115	0
1651053506178	107.848	-99.552	1096.536	37.94	-43.82	-24.71	166.5	109.5	-744	0	0	0	0	0	0	0	0	0	0	0	0	0	0	0	0	0	0	7015	7964	0
1651053506188	78.568	-139.568	1039.928	43.96	-51.45	-27.02	165	99	-744	0	0	0	0	0	0	0	0	0	0	0	0	0	0	0	0	0	0	5197	5677	0
1651053506198	89.304	-132.248	972.584	46.55	-56.07	-32.13	160.5	85.5	-745.5	0	0	0	0	0	0	0	0	0	0	0	0	0	0	0	0	0	0	3635	3822	0
1651053506208	102.968	-177.632	1010.16	42.98	-54.53	-35.49	157.5	81	-750	0	0	0	0	0	0	0	0	0	0	0	0	0	0	0	0	0	0	2548	2598	0
1651053506218	122.976	-136.64	1007.72	36.61	-53.13	-42.91	156	81	-748.5	0	0	0	0	0	0	0	0	0	0	0	0	0	0	0	0	0	0	1923	1984	0
1651053506228	170.8	92.72	952.088	30.45	-48.93	-44.31	154.5	76.5	-747	0	0	0	0	0	0	0	0	0	0	0	0	0	0	0	0	0	0	2027	2254	0
1651053506238	196.176	122.976	1000.4	27.51	-43.33	-39.69	148.5	76.5	-747	0	0	0	0	0	0	0	0	0	0	0	0	0	0	0	0	0	0	2576	3050	0
1651053506248	244	95.648	1074.576	29.47	-43.33	-38.43	144	69	-750	0	0	0	0	0	0	0	0	0	0	0	0	0	0	0	0	0	0	3471	4033	0
1651053506258	252.296	26.84	1129.232	37.31	-53.76	-39.2	141	60	-754.5	0	0	0	0	0	0	0	0	0	0	0	0	0	0	0	0	0	0	3862	4488	0
1651053506268	245.464	28.792	1109.224	51.8	-69.09	-41.09	132	52.5	-753	0	0	0	0	0	0	0	0	0	0	0	0	0	0	0	0	0	0	3732	4498	0
1651053506278	237.168	34.16	1070.184	71.12	-86.1	-43.68	130.5	43.5	-751.5	0	0	0	0	0	0	0	0	0	0	0	0	0	0	0	0	0	0	3237	4212	0
1651053506288	284.992	78.08	1015.528	90.37	-99.05	-42.07	127.5	36	-750	0	0	0	0	0	0	0	0	0	0	0	0	0	0	0	0	0	0	2832	4062	0
1651053506298	283.04	-28.792	929.64	92.54	-95.06	-40.11	118.5	30	-753	0	0	0	0	0	0	0	0	0	0	0	0	0	0	0	0	0	0	2014	3194	0
1651053506308	345.504	-39.04	862.296	87.22	-66.15	-50.68	114	19.5	-756	0	0	0	0	0	0	0	0	0	0	0	0	0	0	0	0	0	0	1556	2435	0
1651053506318	192.272	-4.392	991.128	89.39	-71.19	-62.3	112.5	12	-763.5	0	0	0	0	0	0	0	0	0	0	0	0	0	0	0	0	0	0	1238	1819	0
1651053506328	71.736	-29.768	898.408	94.64	-34.86	-30.45	106.5	6	-769.5	0	0	0	0	0	0	0	0	0	0	0	0	0	0	0	0	0	0	1117	1449	0
1651053506338	451.4	12.2	923.784	90.86	-39.27	-34.16	96	1.5	-769.5	0	0	0	0	0	0	0	0	0	0	0	0	0	0	0	0	0	0	1071	1255	0
1651053506348	309.392	51.24	939.4	80.08	-17.85	-35.07	88.5	-6	-771	0	0	0	0	0	0	0	0	0	0	0	0	0	0	0	0	0	0	1053	1157	0
1651053506358	95.16	-56.608	1009.672	71.61	-7.84	-41.02	81	-10.5	-771	0	0	0	0	0	0	0	0	0	0	0	0	0	0	0	0	0	0	1037	1078	0
1651053506368	73.2	-73.2	944.28	83.72	-14.07	-45.92	76.5	-12	-766.5	0	0	0	0	0	0	0	0	0	0	0	0	0	0	0	0	0	0	1068	1148	0
1651053506378	169.336	4.88	907.68	123.06	-50.4	-53.97	67.5	-19.5	-769.5	0	0	0	0	0	0	0	0	0	0	0	0	0	0	0	0	0	0	1089	1144	0
1651053506388	330.864	89.304	923.296	161.07	-88.69	-60.27	55.5	-24	-774	0	0	0	0	0	0	0	0	0	0	0	0	0	0	0	0	0	0	1070	1110	0
1651053506398	284.016	219.6	911.584	188.65	-108.57	-59.29	42	-31.5	-778.5	0	0	0	0	0	0	0	0	0	0	0	0	0	0	0	0	0	0	1064	1088	0
1651053506408	266.448	218.136	948.184	197.54	-114.66	-52.99	31.5	-37.5	-778.5	0	0	0	0	0	0	0	0	0	0	0	0	0	0	0	0	0	0	1068	1094	0
1651053506418	347.944	281.576	857.904	195.09	-105.35	-49.07	15	-48	-780	0	0	0	0	0	0	0	0	0	0	0	0	0	0	0	0	0	0	1060	1062	0
1651053506428	310.856	293.288	825.208	184.94	-77.84	-53.2	3	-60	-783	0	0	0	0	0	0	0	0	0	0	0	0	0	0	0	0	0	0	1058	1071	0
1651053506438	266.448	227.896	871.08	157.78	-54.67	-63.42	-15	-64.5	-780	0	0	0	0	0	0	0	0	0	0	0	0	0	0	0	0	0	0	1063	1057	0
1651053506448	199.104	195.2	985.272	147.14	-39.48	-69.79	-36	-76.5	-780	0	0	0	0	0	0	0	0	0	0	0	0	0	0	0	0	0	0	1063	1034	0
1651053506458	166.896	231.8	915.976	157.78	-49.28	-73.22	-51	-78	-781.5	0	0	0	0	0	0	0	0	0	0	0	0	0	0	0	0	0	0	1038	978	0
1651053506468	204.472	296.216	929.64	144.41	-87.99	-74.48	-66	-85.5	-780	0	0	0	0	0	0	0	0	0	0	0	0	0	0	0	0	0	0	1035	945	0
1651053506478	296.704	479.216	722.728	145.81	-134.47	-90.58	-82.5	-99	-781.5	0	0	0	0	0	0	0	0	0	0	0	0	0	0	0	0	0	0	1042	926	0
1651053506488	284.016	534.36	655.872	149.24	-153.58	-95.62	-94.5	-108	-780	0	0	0	0	0	0	0	0	0	0	0	0	0	0	0	0	0	0	1041	907	0
1651053506498	399.672	589.016	576.816	151.97	-133.28	-90.86	-106.5	-120	-766.5	0	0	0	0	0	0	0	0	0	0	0	0	0	0	0	0	0	0	1048	897	0
1651053506508	391.864	602.68	581.208	142.59	-105.35	-83.3	-127.5	-132	-765	0	0	0	0	0	0	0	0	0	0	0	0	0	0	0	0	0	0	1046	897	0
1651053506518	418.704	650.504	599.264	128.66	-78.61	-74.76	-138	-136.5	-762	0	0	0	0	0	0	0	0	0	0	0	0	0	0	0	0	0	0	1041	891	0
1651053506528	425.048	671.488	638.304	118.3	-46.76	-54.81	-145.5	-144	-754.5	0	0	0	0	0	0	0	0	0	0	0	0	0	0	0	0	0	0	1044	881	0
1651053506539	392.84	569.984	683.688	82.6	-31.29	-49.28	-156	-150	-748.5	0	0	0	0	0	0	0	0	0	0	0	0	0	0	0	0	0	0	1041	885	0
1651053506549	272.304	504.592	734.928	69.3	-0.63	-60.48	-166.5	-150	-750	0	0	0	0	0	0	0	0	0	0	0	0	0	0	0	0	0	0	1041	875	0
1651053506559	326.472	607.56	694.912	63.42	17.85	-76.79	-177	-153	-750	0	0	0	0	0	0	0	0	0	0	0	0	0	0	0	0	0	0	1050	878	0
1651053506569	372.832	665.144	614.88	52.57	27.23	-94.01	-184.5	-153	-750	0	0	0	0	0	0	0	0	0	0	0	0	0	0	0	0	0	0	1026	855	0
1651053506579	308.904	1064.816	-1172.176	52.71	40.74	-97.65	-193.5	-153	-756	0	0	0	0	0	0	0	0	0	0	0	0	0	0	0	0	0	0	1025	851	0
1651053506589	363.56	728.584	608.536	49.14	-2.31	-69.44	-201	-148.5	-757.5	0	0	0	0	0	0	0	0	0	0	0	0	0	0	0	0	0	0	1018	843	0
1651053506599	336.72	771.04	503.616	71.89	-3.08	-62.02	-205.5	-150	-757.5	0	0	0	0	0	0	0	0	0	0	0	0	0	0	0	0	0	0	1014	842	0
1651053506609	361.12	774.456	542.656	83.37	-14.91	-60.34	-216	-153	-754.5	0	0	0	0	0	0	0	0	0	0	0	0	0	0	0	0	0	0	1010	841	0
1651053506619	403.576	790.56	555.344	94.29	-27.65	-50.82	-225	-153	-751.5	0	0	0	0	0	0	0	0	0	0	0	0	0	0	0	0	0	0	1015	835	0
1651053506629	371.368	762.256	576.328	109.62	-34.3	-39.55	-232.5	-159	-753	0	0	0	0	0	0	0	0	0	0	0	0	0	0	0	0	0	0	1013	836	0
1651053506639	395.768	933.056	588.528	104.86	-47.04	-30.8	-241.5	-160.5	-750	0	0	0	0	0	0	0	0	0	0	0	0	0	0	0	0	0	0	1020	849	0
1651053506649	465.552	997.96	563.64	81.62	-47.39	-17.99	-249	-165	-742.5	0	0	0	0	0	0	0	0	0	0	0	0	0	0	0	0	0	0	1028	849	0
1651053506659	464.088	1021.872	487.512	57.96	-37.66	-12.11	-258	-169.5	-742.5	0	0	0	0	0	0	0	0	0	0	0	0	0	0	0	0	0	0	1028	850	0
1651053506669	418.216	978.44	441.152	32.97	-22.61	-11.48	-261	-174	-750	0	0	0	0	0	0	0	0	0	0	0	0	0	0	0	0	0	0	1025	844	0
1651053506679	389.424	910.12	413.824	16.1	-6.79	-16.1	-262.5	-171	-751.5	0	0	0	0	0	0	0	0	0	0	0	0	0	0	0	0	0	0	1023	849	0
1651053506689	385.52	863.76	436.76	11.41	-0.98	-16.03	-264	-171	-747	0	0	0	0	0	0	0	0	0	0	0	0	0	0	0	0	0	0	1023	842	0
1651053506699	388.936	839.36	410.408	14.21	-6.93	-12.6	-262.5	-175.5	-745.5	0	0	0	0	0	0	0	0	0	0	0	0	0	0	0	0	0	0	1019	846	0
1651053506709	404.064	859.856	409.432	16.52	-17.71	-9.66	-265.5	-169.5	-745.5	0	0	0	0	0	0	0	0	0	0	0	0	0	0	0	0	0	0	1027	844	0
1651053506719	448.96	876.448	431.88	17.64	-22.82	-3.01	-273	-168	-742.5	0	0	0	0	0	0	0	0	0	0	0	0	0	0	0	0	0	0	1021	846	0
1651053506729	432.856	885.232	452.864	15.05	-19.6	-0.84	-270	-177	-742.5	0	0	0	0	0	0	0	0	0	0	0	0	0	0	0	0	0	0	1021	850	0
1651053506739	439.688	922.32	484.584	7.7	-14.21	5.88	-264	-181.5	-742.5	0	0	0	0	0	0	0	0	0	0	0	0	0	0	0	0	0	0	1022	848	0
1651053506749	418.216	906.216	502.152	-4.2	-7.98	10.29	-264	-183	-741	0	0	0	0	0	0	0	0	0	0	0	0	0	0	0	0	0	0	1034	851	0
1651053506759	383.568	881.816	525.088	-16.03	1.33	10.22	-264	-181.5	-744	0	0	0	0	0	0	0	0	0	0	0	0	0	0	0	0	0	0	1034	856	0
1651053506769	368.44	857.904	497.272	-22.82	5.88	10.29	-264	-177	-739.5	0	0	0	0	0	0	0	0	0	0	0	0	0	0	0	0	0	0	1024	845	0
1651053506779	354.288	825.696	453.84	-23.38	7.84	7	-264	-181.5	-738	0	0	0	0	0	0	0	0	0	0	0	0	0	0	0	0	0	0	1023	854	0
1651053506789	354.776	824.72	441.152	-17.64	9.24	3.43	-255	-180	-744	0	0	0	0	0	0	0	0	0	0	0	0	0	0	0	0	0	0	1029	846	0
1651053506799	387.96	826.672	461.16	-10.57	6.86	3.99	-256.5	-177	-745.5	0	0	0	0	0	0	0	0	0	0	0	0	0	0	0	0	0	0	1026	849	0
1651053506809	397.232	837.896	488.488	-5.95	3.29	6.79	-261	-175.5	-745.5	0	0	0	0	0	0	0	0	0	0	0	0	0	0	0	0	0	0	1028	849	0
1651053506819	378.2	842.776	524.112	-4.06	-0.56	10.22	-256.5	-180	-750	0	0	0	0	0	0	0	0	0	0	0	0	0	0	0	0	0	0	1025	841	0
1651053506829	382.104	837.896	512.4	-4.48	-2.66	12.32	-256.5	-187.5	-750	0	0	0	0	0	0	0	0	0	0	0	0	0	0	0	0	0	0	1033	848	0
1651053506839	362.096	794.952	514.352	-9.1	2.38	14.28	-255	-189	-754.5	0	0	0	0	0	0	0	0	0	0	0	0	0	0	0	0	0	0	1036	848	0
1651053506849	342.088	764.208	527.528	-15.05	7.28	11.83	-253.5	-183	-753	0	0	0	0	0	0	0	0	0	0	0	0	0	0	0	0	0	0	1037	838	0
1651053506859	341.6	743.224	559.736	-21.84	9.73	8.82	-247.5	-180	-753	0	0	0	0	0	0	0	0	0	0	0	0	0	0	0	0	0	0	1026	842	0
1651053506869	361.12	727.12	574.864	-29.68	7.28	6.23	-244.5	-181.5	-754.5	0	0	0	0	0	0	0	0	0	0	0	0	0	0	0	0	0	0	1033	837	0
1651053506879	352.336	721.264	549.976	-38.5	8.19	-0.42	-247.5	-181.5	-754.5	0	0	0	0	0	0	0	0	0	0	0	0	0	0	0	0	0	0	1018	842	0
1651053506889	337.696	738.344	497.76	-44.1	13.16	-6.86	-247.5	-183	-756	0	0	0	0	0	0	0	0	0	0	0	0	0	0	0	0	0	0	1025	838	0
1651053506899	330.864	719.312	481.168	-43.82	17.57	-12.18	-241.5	-186	-763.5	0	0	0	0	0	0	0	0	0	0	0	0	0	0	0	0	0	0	1020	837	0
1651053506909	341.6	728.584	505.568	-39.69	16.87	-14.56	-232.5	-181.5	-768	0	0	0	0	0	0	0	0	0	0	0	0	0	0	0	0	0	0	1024	835	0
1651053506919	356.24	760.304	528.992	-32.2	13.65	-11.9	-232.5	-180	-766.5	0	0	0	0	0	0	0	0	0	0	0	0	0	0	0	0	0	0	1024	827	0
1651053506929	388.936	756.4	543.144	-27.58	11.62	-7.91	-231	-180	-763.5	0	0	0	0	0	0	0	0	0	0	0	0	0	0	0	0	0	0	1023	828	0
1651053506939	395.28	752.496	549	-26.74	13.09	-4.55	-229.5	-175.5	-768	0	0	0	0	0	0	0	0	0	0	0	0	0	0	0	0	0	0	1019	828	0
1651053506949	372.344	748.104	565.592	-28.07	16.8	-3.5	-222	-175.5	-769.5	0	0	0	0	0	0	0	0	0	0	0	0	0	0	0	0	0	0	1015	835	0
1651053506958	363.56	749.08	597.312	-28.98	19.18	-1.26	-222	-178.5	-772.5	0	0	0	0	0	0	0	0	0	0	0	0	0	0	0	0	0	0	1008	842	0
1651053506968	362.584	740.296	609.512	-31.78	18.97	-1.68	-225	-178.5	-774	0	0	0	0	0	0	0	0	0	0	0	0	0	0	0	0	0	0	1012	837	0
1651053506978	339.648	730.048	617.32	-34.37	16.45	-4.13	-222	-172.5	-781.5	0	0	0	0	0	0	0	0	0	0	0	0	0	0	0	0	0	0	1021	843	0
1651053506988	338.672	731.024	593.896	-33.53	13.72	-5.11	-220.5	-169.5	-783	0	0	0	0	0	0	0	0	0	0	0	0	0	0	0	0	0	0	1025	844	0
1651053506998	355.264	736.392	586.088	-32.34	13.93	-8.96	-220.5	-172.5	-780	0	0	0	0	0	0	0	0	0	0	0	0	0	0	0	0	0	0	1025	839	0
1651053507008	373.808	746.152	610.488	-31.78	16.66	-10.01	-220.5	-180	-786	0	0	0	0	0	0	0	0	0	0	0	0	0	0	0	0	0	0	1027	849	0
1651053507018	393.328	759.328	617.32	-30.94	17.57	-9.66	-214.5	-175.5	-789	0	0	0	0	0	0	0	0	0	0	0	0	0	0	0	0	0	0	1020	845	0
1651053507028	408.456	748.104	610.488	-28.35	18.55	-6.51	-210	-171	-789	0	0	0	0	0	0	0	0	0	0	0	0	0	0	0	0	0	0	1037	839	0
1651053507038	391.376	750.544	635.376	-24.85	17.64	-4.06	-210	-168	-789	0	0	0	0	0	0	0	0	0	0	0	0	0	0	0	0	0	0	1024	848	0
1651053507048	386.984	730.536	659.288	-19.53	13.86	0.91	-214.5	-174	-789	0	0	0	0	0	0	0	0	0	0	0	0	0	0	0	0	0	0	1027	854	0
1651053507058	362.584	711.992	669.536	-19.67	13.58	-0.77	-211.5	-175.5	-795	0	0	0	0	0	0	0	0	0	0	0	0	0	0	0	0	0	0	1037	848	0
1651053507068	356.728	703.208	663.68	-19.25	14.42	-0.7	-204	-169.5	-804	0	0	0	0	0	0	0	0	0	0	0	0	0	0	0	0	0	0	1030	852	0
1651053507078	366.488	712.968	670.512	-20.02	14	-2.73	-204	-168	-796.5	0	0	0	0	0	0	0	0	0	0	0	0	0	0	0	0	0	0	1044	851	0
1651053507088	365.512	718.336	673.44	-21.7	15.61	-3.57	-202.5	-165	-793.5	0	0	0	0	0	0	0	0	0	0	0	0	0	0	0	0	0	0	1042	851	0
1651053507098	375.272	727.608	679.296	-22.26	16.87	-3.15	-199.5	-163.5	-795	0	0	0	0	0	0	0	0	0	0	0	0	0	0	0	0	0	0	1045	845	0
1651053507108	369.904	725.168	681.736	-22.33	18.13	-1.61	-198	-165	-795	0	0	0	0	0	0	0	0	0	0	0	0	0	0	0	0	0	0	1039	846	0
1651053507118	351.848	700.28	677.832	-19.74	18.76	-1.05	-196.5	-163.5	-804	0	0	0	0	0	0	0	0	0	0	0	0	0	0	0	0	0	0	1039	832	0
1651053507128	353.312	690.52	690.032	-15.47	16.73	1.61	-198	-162	-810	0	0	0	0	0	0	0	0	0	0	0	0	0	0	0	0	0	0	1036	827	0
1651053507138	348.432	683.2	693.936	-11.69	11.2	4.34	-192	-162	-807	0	0	0	0	0	0	0	0	0	0	0	0	0	0	0	0	0	0	1031	824	0
1651053507148	333.304	684.664	685.64	-7.77	5.39	3.22	-190.5	-156	-807	0	0	0	0	0	0	0	0	0	0	0	0	0	0	0	0	0	0	1018	821	0
1651053507158	335.744	700.28	680.272	-4.69	3.57	1.54	-190.5	-154.5	-811.5	0	0	0	0	0	0	0	0	0	0	0	0	0	0	0	0	0	0	1014	821	0
1651053507168	350.384	714.92	684.176	-5.39	3.85	0.84	-190.5	-160.5	-813	0	0	0	0	0	0	0	0	0	0	0	0	0	0	0	0	0	0	1010	818	0
1651053507178	356.728	726.632	689.544	-10.5	5.39	0.49	-192	-157.5	-811.5	0	0	0	0	0	0	0	0	0	0	0	0	0	0	0	0	0	0	1009	819	0
1651053507188	358.68	717.36	691.008	-14.91	10.64	0.84	-192	-153	-811.5	0	0	0	0	0	0	0	0	0	0	0	0	0	0	0	0	0	0	1005	825	0
1651053507198	344.04	707.112	698.328	-19.32	15.26	1.19	-189	-153	-811.5	0	0	0	0	0	0	0	0	0	0	0	0	0	0	0	0	0	0	1005	829	0
1651053507208	325.984	692.96	705.16	-20.65	17.43	0	-189	-153	-813	0	0	0	0	0	0	0	0	0	0	0	0	0	0	0	0	0	0	999	830	0
1651053507218	307.928	681.736	699.792	-19.95	16.66	-0.63	-187.5	-156	-813	0	0	0	0	0	0	0	0	0	0	0	0	0	0	0	0	0	0	1010	833	0
1651053507228	315.736	683.2	696.376	-18.62	14.7	-0.49	-189	-157.5	-817.5	0	0	0	0	0	0	0	0	0	0	0	0	0	0	0	0	0	0	1003	840	0
1651053507238	308.416	677.344	698.816	-17.85	13.02	-0.56	-181.5	-154.5	-817.5	0	0	0	0	0	0	0	0	0	0	0	0	0	0	0	0	0	0	1015	843	0
1651053507248	312.32	658.8	694.912	-16.45	10.99	-1.12	-178.5	-153	-817.5	0	0	0	0	0	0	0	0	0	0	0	0	0	0	0	0	0	0	1017	844	0
1651053507258	316.224	677.344	693.936	-16.1	10.57	-0.84	-178.5	-154.5	-819	0	0	0	0	0	0	0	0	0	0	0	0	0	0	0	0	0	0	1028	845	0
1651053507268	316.224	682.712	696.376	-17.43	10.78	1.68	-175.5	-153	-820.5	0	0	0	0	0	0	0	0	0	0	0	0	0	0	0	0	0	0	1029	840	0
1651053507278	322.568	683.2	709.064	-20.44	14.77	0.56	-175.5	-153	-820.5	0	0	0	0	0	0	0	0	0	0	0	0	0	0	0	0	0	0	1024	852	0
1651053507288	299.144	662.704	714.432	-21.98	17.78	2.31	-178.5	-153	-819	0	0	0	0	0	0	0	0	0	0	0	0	0	0	0	0	0	0	1044	863	0
1651053507298	280.112	664.656	698.816	-22.61	16.66	0.21	-177	-150	-822	0	0	0	0	0	0	0	0	0	0	0	0	0	0	0	0	0	0	1037	867	0
1651053507308	285.48	661.24	715.408	-22.47	15.4	-1.05	-174	-151.5	-823.5	0	0	0	0	0	0	0	0	0	0	0	0	0	0	0	0	0	0	1042	867	0
1651053507318	264.984	653.432	714.92	-17.92	14.77	-0.7	-168	-148.5	-822	0	0	0	0	0	0	0	0	0	0	0	0	0	0	0	0	0	0	1045	860	0
1651053507328	272.792	641.232	711.992	-14.07	10.85	1.96	-169.5	-145.5	-829.5	0	0	0	0	0	0	0	0	0	0	0	0	0	0	0	0	0	0	1054	871	0
1651053507338	282.552	629.032	719.312	-11.41	6.79	1.4	-172.5	-142.5	-826.5	0	0	0	0	0	0	0	0	0	0	0	0	0	0	0	0	0	0	1057	850	0
1651053507348	283.528	630.008	716.384	-6.72	5.53	3.36	-172.5	-141	-828	0	0	0	0	0	0	0	0	0	0	0	0	0	0	0	0	0	0	1058	848	0
1651053507358	265.96	630.984	717.36	-7.91	4.34	1.68	-169.5	-145.5	-828	0	0	0	0	0	0	0	0	0	0	0	0	0	0	0	0	0	0	1056	847	0
1651053507368	262.056	625.616	721.752	-9.1	7.14	0.07	-166.5	-145.5	-823.5	0	0	0	0	0	0	0	0	0	0	0	0	0	0	0	0	0	0	1047	836	0
1651053507379	263.52	636.352	715.408	-10.29	10.15	-0.77	-163.5	-138	-826.5	0	0	0	0	0	0	0	0	0	0	0	0	0	0	0	0	0	0	1053	828	0
1651053507389	263.52	636.84	719.8	-12.25	10.99	-1.82	-163.5	-136.5	-829.5	0	0	0	0	0	0	0	0	0	0	0	0	0	0	0	0	0	0	1044	827	0
1651053507399	256.688	638.792	730.536	-12.32	11.83	-3.57	-165	-142.5	-831	0	0	0	0	0	0	0	0	0	0	0	0	0	0	0	0	0	0	1039	821	0
1651053507409	251.808	631.472	725.168	-9.31	10.57	-4.34	-166.5	-142.5	-832.5	0	0	0	0	0	0	0	0	0	0	0	0	0	0	0	0	0	0	1019	819	0
1651053507419	261.08	633.912	742.736	-4.97	6.79	-4.34	-166.5	-136.5	-832.5	0	0	0	0	0	0	0	0	0	0	0	0	0	0	0	0	0	0	1010	805	0
1651053507429	258.64	630.496	753.96	-1.33	3.29	-4.34	-168	-135	-834	0	0	0	0	0	0	0	0	0	0	0	0	0	0	0	0	0	0	1009	807	0
1651053507439	279.624	638.304	741.76	1.75	0.14	-2.87	-169.5	-138	-829.5	0	0	0	0	0	0	0	0	0	0	0	0	0	0	0	0	0	0	1013	816	0
1651053507449	264.496	653.432	745.176	1.05	-0.49	-4.06	-165	-139.5	-828	0	0	0	0	0	0	0	0	0	0	0	0	0	0	0	0	0	0	999	813	0
1651053507459	275.72	653.92	754.448	-1.05	1.61	-4.62	-160.5	-138	-831	0	0	0	0	0	0	0	0	0	0	0	0	0	0	0	0	0	0	997	818	0
1651053507469	268.888	655.872	746.64	-4.48	3.99	-5.39	-163.5	-139.5	-835.5	0	0	0	0	0	0	0	0	0	0	0	0	0	0	0	0	0	0	1006	827	0
1651053507479	277.184	661.24	748.592	-7.98	5.74	-6.65	-165	-144	-835.5	0	0	0	0	0	0	0	0	0	0	0	0	0	0	0	0	0	0	1010	830	0
1651053507489	267.912	648.552	741.76	-9.03	7.07	-7.91	-165	-141	-832.5	0	0	0	0	0	0	0	0	0	0	0	0	0	0	0	0	0	0	1016	838	0
1651053507499	272.304	646.6	741.272	-8.33	7.63	-7.63	-163.5	-133.5	-832.5	0	0	0	0	0	0	0	0	0	0	0	0	0	0	0	0	0	0	1021	839	0
1651053507509	274.256	661.728	747.128	-8.33	7.84	-6.58	-157.5	-132	-832.5	0	0	0	0	0	0	0	0	0	0	0	0	0	0	0	0	0	0	1025	848	0
1651053507519	274.256	660.264	763.232	-7.7	7.28	-5.32	-159	-139.5	-832.5	0	0	0	0	0	0	0	0	0	0	0	0	0	0	0	0	0	0	1021	836	0
1651053507529	276.208	662.704	754.448	-6.02	5.53	-3.43	-162	-141	-834	0	0	0	0	0	0	0	0	0	0	0	0	0	0	0	0	0	0	1029	850	0
1651053507539	269.864	654.408	744.688	-4.48	2.66	-1.96	-166.5	-138	-835.5	0	0	0	0	0	0	0	0	0	0	0	0	0	0	0	0	0	0	1023	849	0
1651053507549	269.376	666.608	764.696	-2.38	0.7	-0.28	-166.5	-138	-841.5	0	0	0	0	0	0	0	0	0	0	0	0	0	0	0	0	0	0	1046	854	0
1651053507559	269.864	666.608	781.288	-0.7	-0.21	1.54	-162	-139.5	-841.5	0	0	0	0	0	0	0	0	0	0	0	0	0	0	0	0	0	0	1038	856	0
1651053507569	272.304	656.848	788.608	-1.05	-0.7	2.45	-162	-139.5	-837	0	0	0	0	0	0	0	0	0	0	0	0	0	0	0	0	0	0	1045	865	0
1651053507579	256.2	653.432	783.728	-1.26	-1.33	2.73	-159	-142.5	-835.5	0	0	0	0	0	0	0	0	0	0	0	0	0	0	0	0	0	0	1048	863	0
1651053507589	254.248	647.576	772.016	-2.45	-0.84	2.31	-160.5	-144	-835.5	0	0	0	0	0	0	0	0	0	0	0	0	0	0	0	0	0	0	1054	857	0
1651053507599	243.512	647.576	761.768	-3.71	-0.07	1.12	-159	-144	-837	0	0	0	0	0	0	0	0	0	0	0	0	0	0	0	0	0	0	1061	858	0
1651053507609	248.392	643.184	751.52	-3.08	-0.7	0.21	-156	-142.5	-837	0	0	0	0	0	0	0	0	0	0	0	0	0	0	0	0	0	0	1061	854	0
1651053507619	264.984	641.72	751.032	-1.82	-0.28	-0.63	-157.5	-139.5	-835.5	0	0	0	0	0	0	0	0	0	0	0	0	0	0	0	0	0	0	1062	851	0
1651053507629	272.792	641.232	744.2	-2.52	0.63	-0.7	-162	-130.5	-834	0	0	0	0	0	0	0	0	0	0	0	0	0	0	0	0	0	0	1048	832	0
1651053507639	276.208	645.136	739.808	-3.36	1.61	-0.28	-163.5	-138	-838.5	0	0	0	0	0	0	0	0	0	0	0	0	0	0	0	0	0	0	1043	826	0
1651053507649	269.864	633.424	733.952	-3.5	2.03	-0.07	-160.5	-141	-840	0	0	0	0	0	0	0	0	0	0	0	0	0	0	0	0	0	0	1036	821	0
1651053507659	267.424	636.84	751.032	-1.82	1.75	0.56	-157.5	-132	-835.5	0	0	0	0	0	0	0	0	0	0	0	0	0	0	0	0	0	0	1026	823	0
1651053507669	265.472	626.592	760.792	-1.33	0	1.12	-156	-129	-832.5	0	0	0	0	0	0	0	0	0	0	0	0	0	0	0	0	0	0	1025	805	0
1651053507679	265.472	631.96	754.448	-1.26	-0.28	1.54	-159	-130.5	-834	0	0	0	0	0	0	0	0	0	0	0	0	0	0	0	0	0	0	1014	816	0
1651053507689	250.344	629.52	744.2	-1.96	0	1.54	-157.5	-133.5	-841.5	0	0	0	0	0	0	0	0	0	0	0	0	0	0	0	0	0	0	1008	821	0
1651053507699	259.616	629.032	732	-2.24	0.56	1.61	-154.5	-133.5	-843	0	0	0	0	0	0	0	0	0	0	0	0	0	0	0	0	0	0	1004	826	0
1651053507709	264.496	631.96	733.464	-2.24	1.96	1.89	-157.5	-135	-840	0	0	0	0	0	0	0	0	0	0	0	0	0	0	0	0	0	0	1016	844	0
1651053507719	264.984	630.008	752.984	-2.66	2.52	1.75	-159	-135	-838.5	0	0	0	0	0	0	0	0	0	0	0	0	0	0	0	0	0	0	1014	855	0
1651053507729	265.472	624.152	759.328	-3.71	3.5	1.96	-159	-135	-837	0	0	0	0	0	0	0	0	0	0	0	0	0	0	0	0	0	0	1006	858	0
1651053507739	256.2	621.224	767.136	-5.39	3.85	1.12	-156	-133.5	-837	0	0	0	0	0	0	0	0	0	0	0	0	0	0	0	0	0	0	1012	858	0
1651053507749	256.2	632.448	766.16	-6.23	3.43	0.91	-153	-135	-838.5	0	0	0	0	0	0	0	0	0	0	0	0	0	0	0	0	0	0	1018	877	0
1651053507759	253.76	641.72	758.84	-8.4	6.23	0.56	-150	-141	-843	0	0	0	0	0	0	0	0	0	0	0	0	0	0	0	0	0	0	1028	910	0
1651053507769	258.64	654.896	764.208	-8.96	8.19	1.61	-147	-136.5	-838.5	0	0	0	0	0	0	0	0	0	0	0	0	0	0	0	0	0	0	1041	927	0
1651053507779	263.032	643.672	770.552	-7.56	6.86	2.8	-150	-132	-834	0	0	0	0	0	0	0	0	0	0	0	0	0	0	0	0	0	0	1043	941	0
1651053507789	267.912	629.032	758.352	-5.25	4.06	4.06	-154.5	-135	-838.5	0	0	0	0	0	0	0	0	0	0	0	0	0	0	0	0	0	0	1067	965	0
1651053507799	252.784	627.568	752.008	-2.45	1.68	5.32	-157.5	-132	-838.5	0	0	0	0	0	0	0	0	0	0	0	0	0	0	0	0	0	0	1061	991	0
1651053507809	256.688	613.416	748.104	0.49	0.35	5.67	-153	-135	-837	0	0	0	0	0	0	0	0	0	0	0	0	0	0	0	0	0	0	1080	1010	0
1651053507819	255.712	619.76	746.152	2.31	-0.28	5.88	-151.5	-136.5	-838.5	0	0	0	0	0	0	0	0	0	0	0	0	0	0	0	0	0	0	1096	1027	0
1651053507829	265.472	606.096	760.792	3.08	-0.77	3.92	-150	-129	-837	0	0	0	0	0	0	0	0	0	0	0	0	0	0	0	0	0	0	1106	1057	0
1651053507839	255.224	615.856	750.544	1.96	0.21	3.78	-148.5	-130.5	-840	0	0	0	0	0	0	0	0	0	0	0	0	0	0	0	0	0	0	1130	1067	0
1651053507849	264.496	621.712	751.032	1.12	2.17	3.99	-148.5	-135	-838.5	0	0	0	0	0	0	0	0	0	0	0	0	0	0	0	0	0	0	1147	1105	0
1651053507859	268.888	633.424	729.56	-0.14	2.59	2.8	-145.5	-129	-838.5	0	0	0	0	0	0	0	0	0	0	0	0	0	0	0	0	0	0	1158	1141	0
1651053507869	266.448	631.96	732.976	-0.07	3.71	3.15	-147	-126	-844.5	0	0	0	0	0	0	0	0	0	0	0	0	0	0	0	0	0	0	1185	1177	0
1651053507879	259.616	635.376	734.928	-0.21	4.34	3.01	-150	-127.5	-844.5	0	0	0	0	0	0	0	0	0	0	0	0	0	0	0	0	0	0	1206	1214	0
1651053507889	245.952	625.616	748.592	-0.91	5.95	3.01	-147	-129	-837	0	0	0	0	0	0	0	0	0	0	0	0	0	0	0	0	0	0	1231	1269	0
1651053507899	264.496	627.08	758.84	-0.63	5.39	2.45	-150	-127.5	-838.5	0	0	0	0	0	0	0	0	0	0	0	0	0	0	0	0	0	0	1261	1330	0
1651053507909	256.2	637.328	756.888	-0.91	5.18	2.8	-151.5	-132	-841.5	0	0	0	0	0	0	0	0	0	0	0	0	0	0	0	0	0	0	1291	1394	0
1651053507919	264.984	641.232	752.008	-1.61	6.44	3.15	-150	-126	-840	0	0	0	0	0	0	0	0	0	0	0	0	0	0	0	0	0	0	1317	1485	0
1651053507929	260.104	637.328	747.616	-2.31	6.3	3.5	-148.5	-123	-841.5	0	0	0	0	0	0	0	0	0	0	0	0	0	0	0	0	0	0	1354	1556	0
1651053507939	264.496	634.4	742.736	-2.59	4.55	4.06	-151.5	-129	-843	0	0	0	0	0	0	0	0	0	0	0	0	0	0	0	0	0	0	1379	1644	0
1651053507949	270.84	635.864	739.32	-2.45	3.64	5.18	-150	-129	-841.5	0	0	0	0	0	0	0	0	0	0	0	0	0	0	0	0	0	0	1416	1776	0
1651053507959	264.984	631.472	744.2	-3.92	5.88	5.46	-150	-121.5	-840	0	0	0	0	0	0	0	0	0	0	0	0	0	0	0	0	0	0	1466	1931	0
1651053507969	261.08	633.424	754.936	-5.6	8.05	5.53	-150	-124.5	-841.5	0	0	0	0	0	0	0	0	0	0	0	0	0	0	0	0	0	0	1517	2129	0
1651053507979	260.592	628.544	757.864	-7.42	10.78	5.39	-148.5	-124.5	-840	0	0	0	0	0	0	0	0	0	0	0	0	0	0	0	0	0	0	1561	2322	0
1651053507989	258.152	627.08	757.376	-8.68	12.32	4.76	-150	-129	-844.5	0	0	0	0	0	0	0	0	0	0	0	0	0	0	0	0	0	0	1575	2494	0
1651053507999	260.592	620.248	756.4	-8.12	12.39	4.48	-142.5	-132	-844.5	0	0	0	0	0	0	0	0	0	0	0	0	0	0	0	0	0	0	1591	2668	0
1651053508009	264.984	619.272	764.696	-6.02	10.43	4.55	-136.5	-126	-841.5	0	0	0	0	0	0	0	0	0	0	0	0	0	0	0	0	0	0	1611	2850	0
1651053508019	260.104	624.152	775.432	-3.99	7.84	5.11	-136.5	-121.5	-844.5	0	0	0	0	0	0	0	0	0	0	0	0	0	0	0	0	0	0	1658	3063	0
1651053508029	253.272	630.496	787.144	-2.38	5.53	5.18	-136.5	-124.5	-849	0	0	0	0	0	0	0	0	0	0	0	0	0	0	0	0	0	0	1763	3365	0
1651053508039	249.368	635.864	784.704	-1.68	4.62	6.37	-138	-120	-844.5	0	0	0	0	0	0	0	0	0	0	0	0	0	0	0	0	0	0	1922	3714	0
1651053508049	235.704	640.256	798.368	-2.31	4.06	6.86	-142.5	-112.5	-837	0	0	0	0	0	0	0	0	0	0	0	0	0	0	0	0	0	0	2160	4099	0
1651053508059	236.68	619.76	799.832	-2.45	4.76	6.72	-142.5	-120	-841.5	0	0	0	0	0	0	0	0	0	0	0	0	0	0	0	0	0	0	2525	4542	0
1651053508069	233.752	615.368	803.736	-3.08	3.85	7.35	-144	-124.5	-846	0	0	0	0	0	0	0	0	0	0	0	0	0	0	0	0	0	0	2975	5022	0
1651053508079	233.752	608.048	791.536	-2.52	3.36	6.44	-147	-121.5	-841.5	0	0	0	0	0	0	0	0	0	0	0	0	0	0	0	0	0	0	3358	5340	0
1651053508089	230.824	605.12	785.192	-2.1	3.15	6.02	-145.5	-123	-840	0	0	0	0	0	0	0	0	0	0	0	0	0	0	0	0	0	0	3871	5711	0
1651053508099	227.896	596.336	790.56	-1.33	1.47	5.88	-141	-126	-844.5	0	0	0	0	0	0	0	0	0	0	0	0	0	0	0	0	0	0	4309	5982	0
1651053508109	245.464	594.384	793.488	-0.7	-1.05	5.11	-138	-124.5	-841.5	0	0	0	0	0	0	0	0	0	0	0	0	0	0	0	0	0	0	4672	6175	0
1651053508119	238.632	596.824	784.704	-0.49	-1.54	4.06	-139.5	-123	-843	0	0	0	0	0	0	0	0	0	0	0	0	0	0	0	0	0	0	4977	6303	0
1651053508129	247.416	591.456	782.752	-0.49	-1.05	2.52	-139.5	-118.5	-846	0	0	0	0	0	0	0	0	0	0	0	0	0	0	0	0	0	0	5223	6452	0
1651053508139	238.144	593.896	774.456	-0.77	-0.42	1.89	-142.5	-118.5	-843	0	0	0	0	0	0	0	0	0	0	0	0	0	0	0	0	0	0	5519	6684	0
1651053508149	254.736	601.216	773.48	-1.19	0.14	1.4	-144	-121.5	-844.5	0	0	0	0	0	0	0	0	0	0	0	0	0	0	0	0	0	0	5788	6961	0
1651053508159	244.488	591.944	772.504	-1.96	1.96	2.45	-136.5	-124.5	-841.5	0	0	0	0	0	0	0	0	0	0	0	0	0	0	0	0	0	0	6088	7234	0
1651053508169	242.536	595.848	796.416	-3.15	3.22	2.1	-138	-124.5	-843	0	0	0	0	0	0	0	0	0	0	0	0	0	0	0	0	0	0	6312	7516	0
1651053508179	244	599.264	799.832	-2.45	2.66	2.73	-135	-117	-844.5	0	0	0	0	0	0	0	0	0	0	0	0	0	0	0	0	0	0	6698	7962	0
1651053508189	253.272	615.368	791.048	-2.94	2.38	3.15	-135	-117	-844.5	0	0	0	0	0	0	0	0	0	0	0	0	0	0	0	0	0	0	7149	8535	0
1651053508199	252.296	601.704	784.704	-2.87	0.56	1.47	-135	-120	-843	0	0	0	0	0	0	0	0	0	0	0	0	0	0	0	0	0	0	7829	9357	0
1651053508209	247.904	607.072	782.752	-1.05	0.07	2.03	-138	-118.5	-846	0	0	0	0	0	0	0	0	0	0	0	0	0	0	0	0	0	0	8792	10444	0
1651053508220	251.32	609.512	781.776	-0.49	-1.4	1.68	-138	-121.5	-849	0	0	0	0	0	0	0	0	0	0	0	0	0	0	0	0	0	0	9892	11644	0
1651053508230	245.464	610.976	794.952	-0.77	-2.24	1.12	-136.5	-123	-847.5	0	0	0	0	0	0	0	0	0	0	0	0	0	0	0	0	0	0	11063	12958	0
1651053508240	241.56	601.704	787.144	-0.91	-1.47	1.12	-144	-123	-844.5	0	0	0	0	0	0	0	0	0	0	0	0	0	0	0	0	0	0	12209	14226	0
1651053508250	245.464	593.408	780.312	-1.19	-1.33	1.26	-142.5	-118.5	-841.5	0	0	0	0	0	0	0	0	0	0	0	0	0	0	0	0	0	0	13032	15104	0
1651053508260	233.752	595.36	785.192	-0.77	-1.89	1.4	-141	-118.5	-841.5	0	0	0	0	0	0	0	0	0	0	0	0	0	0	0	0	0	0	13200	15191	0
1651053508270	248.392	599.752	791.048	-0.14	-3.57	3.08	-139.5	-117	-838.5	0	0	0	0	0	0	0	0	0	0	0	0	0	0	0	0	0	0	12601	14497	0
1651053508280	237.656	615.368	784.704	0.28	-4.13	4.41	-142.5	-121.5	-840	0	0	0	0	0	0	0	0	0	0	0	0	0	0	0	0	0	0	11552	13337	0
1651053508290	253.272	588.528	782.264	0.35	-4.34	3.57	-139.5	-127.5	-846	0	0	0	0	0	0	0	0	0	0	0	0	0	0	0	0	0	0	10255	11963	0
1651053508300	243.024	592.92	780.312	0.84	-4.34	3.01	-138	-127.5	-844.5	0	0	0	0	0	0	0	0	0	0	0	0	0	0	0	0	0	0	9023	10743	0
1651053508310	245.952	605.12	772.016	0.91	-3.78	1.96	-144	-120	-840	0	0	0	0	0	0	0	0	0	0	0	0	0	0	0	0	0	0	8034	9821	0
1651053508320	240.584	607.56	775.432	1.4	-2.73	0.63	-138	-124.5	-840	0	0	0	0	0	0	0	0	0	0	0	0	0	0	0	0	0	0	7462	9397	0
1651053508330	258.64	618.784	780.8	0.42	-1.75	0.21	-139.5	-130.5	-841.5	0	0	0	0	0	0	0	0	0	0	0	0	0	0	0	0	0	0	7156	9352	0
1651053508340	248.392	626.592	785.192	-0.07	-4.62	2.38	-139.5	-126	-844.5	0	0	0	0	0	0	0	0	0	0	0	0	0	0	0	0	0	0	6938	9450	0
1651053508350	241.072	629.032	780.312	-0.49	-1.96	0.91	-133.5	-124.5	-843	0	0	0	0	0	0	0	0	0	0	0	0	0	0	0	0	0	0	6775	9708	0
1651053508360	249.856	613.416	781.288	-0.42	-0.21	1.61	-133.5	-126	-840	0	0	0	0	0	0	0	0	0	0	0	0	0	0	0	0	0	0	6793	10071	0
1651053508370	247.904	597.312	789.584	0.21	-2.66	1.61	-136.5	-124.5	-840	0	0	0	0	0	0	0	0	0	0	0	0	0	0	0	0	0	0	6741	10337	0
1651053508380	240.096	587.552	783.728	0.21	-2.8	0.84	-133.5	-121.5	-844.5	0	0	0	0	0	0	0	0	0	0	0	0	0	0	0	0	0	0	7163	11047	0
1651053508390	245.952	588.528	783.728	0.49	-3.57	0.42	-130.5	-124.5	-846	0	0	0	0	0	0	0	0	0	0	0	0	0	0	0	0	0	0	7630	11669	0
1651053508400	253.272	585.6	780.312	0.28	-4.41	0	-138	-124.5	-841.5	0	0	0	0	0	0	0	0	0	0	0	0	0	0	0	0	0	0	8230	12675	0
1651053508410	250.832	594.384	765.184	0.56	-4.55	-0.7	-139.5	-124.5	-840	0	0	0	0	0	0	0	0	0	0	0	0	0	0	0	0	0	0	9373	14122	0
1651053508420	264.496	614.88	752.008	1.05	-4.41	-0.56	-139.5	-130.5	-843	0	0	0	0	0	0	0	0	0	0	0	0	0	0	0	0	0	0	10699	15678	0
1651053508430	234.24	690.52	734.928	1.05	-4.34	-5.46	-141	-129	-844.5	0	0	0	0	0	0	0	0	0	0	0	0	0	0	0	0	0	0	12099	17155	0
1651053508440	238.144	617.808	720.288	1.82	-0.14	-3.57	-136.5	-120	-840	0	0	0	0	0	0	0	0	0	0	0	0	0	0	0	0	0	0	13482	18453	0
1651053508450	276.696	624.64	774.944	4.2	-2.73	-9.73	-133.5	-118.5	-841.5	0	0	0	0	0	0	0	0	0	0	0	0	0	0	0	0	0	0	14883	19643	0
1651053508460	301.584	637.816	751.032	14.49	1.19	2.87	-132	-121.5	-838.5	0	0	0	0	0	0	0	0	0	0	0	0	0	0	0	0	0	0	16145	20666	0
1651053508470	272.304	617.32	811.544	-4.06	-8.33	-4.83	-139.5	-121.5	-838.5	0	0	0	0	0	0	0	0	0	0	0	0	0	0	0	0	0	0	18241	22383	0
1651053508480	268.4	582.184	767.624	2.17	2.66	1.33	-141	-129	-844.5	0	0	0	0	0	0	0	0	0	0	0	0	0	0	0	0	0	0	19425	22911	0
1651053508490	238.144	624.152	723.704	3.92	-2.24	1.47	-139.5	-129	-843	0	0	0	0	0	0	0	0	0	0	0	0	0	0	0	0	0	0	20081	23397	0
1651053508500	277.184	615.856	766.16	-2.38	-2.38	-4.2	-141	-126	-841.5	0	0	0	0	0	0	0	0	0	0	0	0	0	0	0	0	0	0	21251	24037	0
1651053508510	275.72	608.048	760.792	2.03	3.01	-1.75	-141	-127.5	-844.5	0	0	0	0	0	0	0	0	0	0	0	0	0	0	0	0	0	0	22335	24769	0
1651053508520	258.64	621.224	749.568	3.64	-1.12	-0.42	-141	-126	-841.5	0	0	0	0	0	0	0	0	0	0	0	0	0	0	0	0	0	0	24419	26504	0
1651053508530	282.064	628.544	746.152	0.63	-1.19	-1.82	-136.5	-126	-838.5	0	0	0	0	0	0	0	0	0	0	0	0	0	0	0	0	0	0	27627	29295	0
1651053508540	268.888	621.712	735.904	1.89	2.66	-0.21	-139.5	-127.5	-841.5	0	0	0	0	0	0	0	0	0	0	0	0	0	0	0	0	0	0	32679	33996	0
1651053508550	272.304	632.448	745.176	2.87	0.14	3.29	-142.5	-124.5	-834	0	0	0	0	0	0	0	0	0	0	0	0	0	0	0	0	0	0	41828	42518	0
1651053508560	272.792	621.224	745.664	2.38	0.7	2.8	-141	-120	-837	0	0	0	0	0	0	0	0	0	0	0	0	0	0	0	0	0	0	54351	54174	0
1651053508570	275.232	611.464	754.448	3.15	2.38	4.34	-135	-123	-843	0	0	0	0	0	0	0	0	0	0	0	0	0	0	0	0	0	0	72145	71238	0
1651053508580	259.128	590.48	761.768	2.94	0.42	3.15	-141	-130.5	-847.5	0	0	0	0	0	0	0	0	0	0	0	0	0	0	0	0	0	0	105712	101753	0
1651053508590	250.832	582.184	765.672	2.8	1.19	1.68	-147	-129	-849	0	0	0	0	0	0	0	0	0	0	0	0	0	0	0	0	0	0	141970	140507	0
1651053508600	238.144	583.648	768.6	3.08	1.19	0.35	-147	-126	-847.5	0	0	0	0	0	0	0	0	0	0	0	0	0	0	0	0	0	0	156188	169638	0
1651053508610	248.88	587.552	766.648	2.17	0.84	-1.47	-141	-129	-840	0	0	0	0	0	0	0	0	0	0	0	0	0	0	0	0	0	0	166360	181797	0
1651053508620	251.32	595.36	768.6	2.1	1.89	-2.45	-139.5	-130.5	-838.5	0	0	0	0	0	0	0	0	0	0	0	0	0	0	0	0	0	0	172141	190306	0
1651053508630	252.784	600.728	772.992	2.24	1.4	-2.45	-139.5	-130.5	-841.5	0	0	0	0	0	0	0	0	0	0	0	0	0	0	0	0	0	0	176472	198073	0
1651053508640	262.544	612.44	772.504	1.89	1.12	-2.87	-139.5	-127.5	-838.5	0	0	0	0	0	0	0	0	0	0	0	0	0	0	0	0	0	0	179088	202867	0
1651053508650	277.184	625.128	776.896	1.47	2.73	-1.61	-144	-129	-838.5	0	0	0	0	0	0	0	0	0	0	0	0	0	0	0	0	0	0	180509	206508	0
1651053508660	264.496	632.448	785.68	1.12	2.66	-0.07	-145.5	-124.5	-843	0	0	0	0	0	0	0	0	0	0	0	0	0	0	0	0	0	0	181145	208141	0
1651053508670	252.296	615.856	794.464	1.19	0.98	0.77	-145.5	-123	-837	0	0	0	0	0	0	0	0	0	0	0	0	0	0	0	0	0	0	181620	209275	0
1651053508680	252.296	610.488	793.976	2.38	0.28	0.98	-145.5	-129	-834	0	0	0	0	0	0	0	0	0	0	0	0	0	0	0	0	0	0	181867	210021	0
1651053508690	235.216	606.584	796.904	2.03	-0.28	0.56	-147	-132	-840	0	0	0	0	0	0	0	0	0	0	0	0	0	0	0	0	0	0	181957	210488	0
1651053508700	233.264	593.896	795.928	1.47	-0.56	-0.21	-148.5	-126	-840	0	0	0	0	0	0	0	0	0	0	0	0	0	0	0	0	0	0	181571	210259	0
1651053508710	240.096	593.408	792.512	1.12	-0.28	-1.89	-144	-118.5	-838.5	0	0	0	0	0	0	0	0	0	0	0	0	0	0	0	0	0	0	181392	210231	0
1651053508720	247.904	602.192	781.288	1.82	-1.4	-2.52	-145.5	-123	-843	0	0	0	0	0	0	0	0	0	0	0	0	0	0	0	0	0	0	181337	210488	0
1651053508730	251.32	601.704	773.48	1.75	-2.38	-2.94	-144	-121.5	-844.5	0	0	0	0	0	0	0	0	0	0	0	0	0	0	0	0	0	0	181794	211127	0
1651053508740	263.52	617.32	764.696	0.91	-0.63	-3.08	-142.5	-123	-846	0	0	0	0	0	0	0	0	0	0	0	0	0	0	0	0	0	0	182128	211535	0
1651053508750	265.472	627.08	761.768	0.63	0	-0.84	-147	-124.5	-841.5	0	0	0	0	0	0	0	0	0	0	0	0	0	0	0	0	0	0	182304	211785	0
1651053508760	274.256	634.888	770.064	0.7	0.63	-0.14	-147	-117	-837	0	0	0	0	0	0	0	0	0	0	0	0	0	0	0	0	0	0	181756	211311	0
1651053508770	272.304	631.472	772.016	1.12	0.14	1.33	-142.5	-123	-840	0	0	0	0	0	0	0	0	0	0	0	0	0	0	0	0	0	0	181461	210976	0
1651053508780	264.984	632.448	767.624	1.89	-2.03	2.66	-145.5	-132	-838.5	0	0	0	0	0	0	0	0	0	0	0	0	0	0	0	0	0	0	180979	210660	0
1651053508790	272.304	615.856	769.576	1.89	-2.17	2.8	-145.5	-127.5	-841.5	0	0	0	0	0	0	0	0	0	0	0	0	0	0	0	0	0	0	180967	210657	0
1651053508800	249.368	611.952	755.424	1.33	-1.96	2.52	-142.5	-121.5	-843	0	0	0	0	0	0	0	0	0	0	0	0	0	0	0	0	0	0	180795	210651	0
1651053508810	246.928	600.24	754.936	1.05	-1.05	1.19	-144	-123	-843	0	0	0	0	0	0	0	0	0	0	0	0	0	0	0	0	0	0	181372	211396	0
1651053508820	242.048	608.048	752.496	1.19	0	-0.14	-145.5	-123	-840	0	0	0	0	0	0	0	0	0	0	0	0	0	0	0	0	0	0	181890	212029	0
1651053508830	250.832	597.312	741.76	2.1	-0.35	-0.84	-145.5	-120	-838.5	0	0	0	0	0	0	0	0	0	0	0	0	0	0	0	0	0	0	182224	212466	0
1651053508840	270.352	612.928	746.64	3.36	-0.7	0.42	-147	-123	-841.5	0	0	0	0	0	0	0	0	0	0	0	0	0	0	0	0	0	0	182453	212755	0
1651053508850	269.864	623.664	755.912	3.64	0.21	0.84	-145.5	-123	-840	0	0	0	0	0	0	0	0	0	0	0	0	0	0	0	0	0	0	182754	212808	0
1651053508860	272.304	628.544	752.984	3.15	0.63	2.52	-150	-126	-841.5	0	0	0	0	0	0	0	0	0	0	0	0	0	0	0	0	0	0	183203	213319	0
1651053508870	272.304	624.64	752.496	1.89	0.7	2.52	-151.5	-126	-840	0	0	0	0	0	0	0	0	0	0	0	0	0	0	0	0	0	0	183746	213906	0
1651053508880	266.448	613.416	748.104	2.1	1.54	3.5	-150	-123	-840	0	0	0	0	0	0	0	0	0	0	0	0	0	0	0	0	0	0	184255	214398	0
1651053508890	264.496	619.272	744.688	1.61	2.1	3.22	-150	-124.5	-840	0	0	0	0	0	0	0	0	0	0	0	0	0	0	0	0	0	0	184638	214862	0
1651053508900	265.472	618.784	738.344	1.61	3.43	3.85	-147	-126	-844.5	0	0	0	0	0	0	0	0	0	0	0	0	0	0	0	0	0	0	185117	215493	0
1651053508910	251.32	603.656	748.104	1.12	4.62	3.01	-145.5	-127.5	-847.5	0	0	0	0	0	0	0	0	0	0	0	0	0	0	0	0	0	0	185581	216047	0
1651053508920	247.416	599.264	757.864	0.77	5.39	1.68	-151.5	-124.5	-843	0	0	0	0	0	0	0	0	0	0	0	0	0	0	0	0	0	0	185937	216488	0
1651053508930	260.104	611.952	749.08	-0.56	5.95	0.56	-147	-124.5	-841.5	0	0	0	0	0	0	0	0	0	0	0	0	0	0	0	0	0	0	186100	216682	0
1651053508940	263.52	617.808	755.424	-2.38	7.56	-0.21	-139.5	-127.5	-838.5	0	0	0	0	0	0	0	0	0	0	0	0	0	0	0	0	0	0	186172	216781	0
1651053508950	256.2	612.928	748.592	-3.01	8.96	-0.7	-144	-127.5	-841.5	0	0	0	0	0	0	0	0	0	0	0	0	0	0	0	0	0	0	186193	216824	0
1651053508960	254.736	624.64	754.936	-1.96	7.42	-0.35	-142.5	-121.5	-840	0	0	0	0	0	0	0	0	0	0	0	0	0	0	0	0	0	0	186190	216874	0
1651053508970	268.4	640.744	750.056	-1.75	7.77	0.7	-145.5	-118.5	-844.5	0	0	0	0	0	0	0	0	0	0	0	0	0	0	0	0	0	0	186222	216923	0
1651053508980	261.08	633.912	760.792	-3.22	10.43	2.45	-145.5	-124.5	-846	0	0	0	0	0	0	0	0	0	0	0	0	0	0	0	0	0	0	186223	216942	0
1651053508990	263.032	621.224	765.672	-3.71	10.85	3.36	-141	-123	-846	0	0	0	0	0	0	0	0	0	0	0	0	0	0	0	0	0	0	186219	216960	0
1651053509000	256.2	620.736	765.672	-3.08	11.2	4.55	-145.5	-118.5	-840	0	0	0	0	0	0	0	0	0	0	0	0	0	0	0	0	0	0	186248	216991	0
1651053509010	245.464	619.272	771.04	-2.73	9.52	5.88	-147	-118.5	-837	0	0	0	0	0	0	0	0	0	0	0	0	0	0	0	0	0	0	186289	217042	0
1651053509020	242.048	611.464	774.456	-2.24	8.68	6.44	-141	-118.5	-844.5	0	0	0	0	0	0	0	0	0	0	0	0	0	0	0	0	0	0	186291	217082	0
1651053509030	238.632	613.904	786.656	-1.54	7.07	6.65	-138	-121.5	-844.5	0	0	0	0	0	0	0	0	0	0	0	0	0	0	0	0	0	0	186254	217063	0
1651053509040	242.536	627.568	782.752	-3.99	6.93	3.92	-139.5	-121.5	-843	0	0	0	0	0	0	0	0	0	0	0	0	0	0	0	0	0	0	186243	217046	0
1651053509050	241.072	630.984	779.336	-5.95	9.17	3.71	-136.5	-117	-841.5	0	0	0	0	0	0	0	0	0	0	0	0	0	0	0	0	0	0	186261	217050	0
1651053509061	240.096	617.32	777.872	-8.47	9.03	2.52	-136.5	-117	-841.5	0	0	0	0	0	0	0	0	0	0	0	0	0	0	0	0	0	0	186318	217057	0
1651053509071	230.824	610.488	766.16	-9.03	9.52	1.05	-138	-115.5	-847.5	0	0	0	0	0	0	0	0	0	0	0	0	0	0	0	0	0	0	186378	217087	0
1651053509081	229.36	604.632	769.088	-7.49	9.31	2.52	-136.5	-115.5	-846	0	0	0	0	0	0	0	0	0	0	0	0	0	0	0	0	0	0	186416	217073	0
1651053509091	203.984	595.848	800.808	-7.98	4.9	-0.56	-133.5	-114	-843	0	0	0	0	0	0	0	0	0	0	0	0	0	0	0	0	0	0	186425	217043	0
1651053509101	216.672	558.76	810.08	-11.9	-4.97	-3.57	-136.5	-117	-847.5	0	0	0	0	0	0	0	0	0	0	0	0	0	0	0	0	0	0	186398	216992	0
1651053509111	217.16	573.4	825.696	-14	-8.89	-3.5	-139.5	-120	-846	0	0	0	0	0	0	0	0	0	0	0	0	0	0	0	0	0	0	186326	216905	0
1651053509121	228.872	562.176	820.328	-14.42	-9.17	-6.51	-139.5	-123	-846	0	0	0	0	0	0	0	0	0	0	0	0	0	0	0	0	0	0	186292	216885	0
1651053509131	238.632	589.992	770.552	-14.7	-9.73	-8.54	-138	-120	-844.5	0	0	0	0	0	0	0	0	0	0	0	0	0	0	0	0	0	0	186416	216994	0
1651053509141	269.376	611.952	774.944	-12.32	0.91	-15.33	-136.5	-115.5	-844.5	0	0	0	0	0	0	0	0	0	0	0	0	0	0	0	0	0	0	186714	217376	0
1651053509151	257.176	650.992	755.424	-7.98	5.39	-10.29	-132	-117	-843	0	0	0	0	0	0	0	0	0	0	0	0	0	0	0	0	0	0	187052	217790	0
1651053509161	232.288	737.856	865.224	-7.07	-2.31	-16.38	-130.5	-121.5	-843	0	0	0	0	0	0	0	0	0	0	0	0	0	0	0	0	0	0	187193	218007	0
1651053509171	58.56	490.44	1015.04	21.84	-1.33	3.01	-129	-126	-846	0	0	0	0	0	0	0	0	0	0	0	0	0	0	0	0	0	0	187302	218187	0
1651053509181	277.184	470.432	772.016	-16.31	-22.82	40.18	-132	-123	-846	0	0	0	0	0	0	0	0	0	0	0	0	0	0	0	0	0	0	187322	218209	0
1651053509191	189.832	447.496	801.784	-13.3	-13.93	23.17	-132	-121.5	-841.5	0	0	0	0	0	0	0	0	0	0	0	0	0	0	0	0	0	0	187285	218172	0
1651053509201	265.472	585.6	843.752	-10.36	-21.77	9.24	-126	-124.5	-843	0	0	0	0	0	0	0	0	0	0	0	0	0	0	0	0	0	0	187209	218157	0
1651053509211	249.856	553.392	812.52	-18.9	-29.26	-4.48	-124.5	-129	-843	0	0	0	0	0	0	0	0	0	0	0	0	0	0	0	0	0	0	187164	218138	0
1651053509221	263.032	542.656	822.28	-27.65	-37.87	-21.7	-129	-132	-844.5	0	0	0	0	0	0	0	0	0	0	0	0	0	0	0	0	0	0	187086	218031	0
1651053509231	292.312	326.472	758.84	-52.57	-19.6	-21.07	-126	-130.5	-844.5	0	0	0	0	0	0	0	0	0	0	0	0	0	0	0	0	0	0	186915	217951	0
1651053509241	136.64	419.68	739.32	-133.49	70.14	25.06	-121.5	-135	-843	0	0	0	0	0	0	0	0	0	0	0	0	0	0	0	0	0	0	186768	217941	0
1651053509251	120.048	605.608	719.312	-136.57	63.56	43.82	-126	-139.5	-843	0	0	0	0	0	0	0	0	0	0	0	0	0	0	0	0	0	0	186718	217949	0
1651053509261	231.8	608.536	765.184	-117.46	48.86	54.46	-109.5	-132	-840	0	0	0	0	0	0	0	0	0	0	0	0	0	0	0	0	0	0	186736	217996	0
1651053509271	187.88	595.848	732.488	-119.49	66.99	74.76	-87	-121.5	-841.5	0	0	0	0	0	0	0	0	0	0	0	0	0	0	0	0	0	0	186758	218077	0
1651053509281	236.192	544.12	796.904	-160.44	126.7	97.93	-70.5	-121.5	-841.5	0	0	0	0	0	0	0	0	0	0	0	0	0	0	0	0	0	0	186730	218090	0
1651053509291	482.144	374.296	1318.576	-73.64	121.73	52.85	-58.5	-117	-843	0	0	0	0	0	0	0	0	0	0	0	0	0	0	0	0	0	0	186657	218044	0
1651053509301	382.592	467.992	881.816	14.21	5.32	1.4	-48	-108	-853.5	0	0	0	0	0	0	0	0	0	0	0	0	0	0	0	0	0	0	186554	217957	0
1651053509311	129.808	459.696	763.232	16.73	-15.12	-8.33	-39	-96	-861	0	0	0	0	0	0	0	0	0	0	0	0	0	0	0	0	0	0	186411	217856	0
1651053509321	150.304	441.64	863.76	6.44	17.92	7.07	-42	-87	-861	0	0	0	0	0	0	0	0	0	0	0	0	0	0	0	0	0	0	186260	217757	0
1651053509331	218.136	410.408	910.608	7.21	14.77	12.6	-43.5	-87	-856.5	0	0	0	0	0	0	0	0	0	0	0	0	0	0	0	0	0	0	186074	217610	0
1651053509341	188.368	472.384	865.224	12.46	10.36	6.93	-40.5	-88.5	-856.5	0	0	0	0	0	0	0	0	0	0	0	0	0	0	0	0	0	0	185796	217391	0
1651053509351	178.12	449.448	871.568	14	17.29	4.2	-45	-88.5	-859.5	0	0	0	0	0	0	0	0	0	0	0	0	0	0	0	0	0	0	185402	217010	0
1651053509361	201.544	448.472	888.16	18.13	15.4	9.31	-48	-85.5	-859.5	0	0	0	0	0	0	0	0	0	0	0	0	0	0	0	0	0	0	185087	216192	0
1651053509371	213.744	472.384	881.328	23.66	7.07	11.27	-49.5	-84	-858	0	0	0	0	0	0	0	0	0	0	0	0	0	0	0	0	0	0	184642	215466	0
1651053509381	200.08	488.488	872.056	25.27	-5.95	15.4	-51	-85.5	-861	0	0	0	0	0	0	0	0	0	0	0	0	0	0	0	0	0	0	184056	214608	0
1651053509391	214.232	483.608	912.56	18.76	-5.88	13.16	-46.5	-84	-865.5	0	0	0	0	0	0	0	0	0	0	0	0	0	0	0	0	0	0	183208	213552	0
1651053509401	194.712	468.48	907.68	9.59	9.17	7.49	-46.5	-82.5	-865.5	0	0	0	0	0	0	0	0	0	0	0	0	0	0	0	0	0	0	182107	212164	0
1651053509411	130.296	461.16	905.728	-3.5	26.25	-0.14	-45	-84	-864	0	0	0	0	0	0	0	0	0	0	0	0	0	0	0	0	0	0	180967	210699	0
1651053509421	104.432	403.088	922.808	-16.03	48.23	-16.94	-46.5	-79.5	-868.5	0	0	0	0	0	0	0	0	0	0	0	0	0	0	0	0	0	0	179918	209438	0
1651053509431	130.296	447.496	929.64	-20.65	52.08	-20.37	-49.5	-78	-864	0	0	0	0	0	0	0	0	0	0	0	0	0	0	0	0	0	0	179074	208378	0
1651053509441	170.312	499.712	889.624	-19.32	45.29	-18.9	-46.5	-79.5	-864	0	0	0	0	0	0	0	0	0	0	0	0	0	0	0	0	0	0	179146	208378	0
1651053509451	160.064	503.616	872.056	-17.78	38.92	-14.28	-48	-78	-867	0	0	0	0	0	0	0	0	0	0	0	0	0	0	0	0	0	0	179647	208789	0
1651053509461	144.448	480.192	874.984	-11.69	34.02	-4.9	-49.5	-76.5	-868.5	0	0	0	0	0	0	0	0	0	0	0	0	0	0	0	0	0	0	180284	209235	0
1651053509471	177.632	478.728	908.656	-5.67	24.92	1.26	-49.5	-76.5	-873	0	0	0	0	0	0	0	0	0	0	0	0	0	0	0	0	0	0	180441	208821	0
1651053509481	192.272	479.704	951.6	-3.71	12.18	8.26	-52.5	-69	-871.5	0	0	0	0	0	0	0	0	0	0	0	0	0	0	0	0	0	0	180008	208060	0
1651053509491	161.528	480.68	904.752	-3.92	9.24	2.59	-46.5	-66	-868.5	0	0	0	0	0	0	0	0	0	0	0	0	0	0	0	0	0	0	177889	204900	0
1651053509501	143.472	448.472	913.048	-3.85	10.08	-2.1	-43.5	-67.5	-870	0	0	0	0	0	0	0	0	0	0	0	0	0	0	0	0	0	0	190710	201530	0
1651053509511	165.92	430.416	904.752	-2.59	2.59	-2.17	-48	-61.5	-873	0	0	0	0	0	0	0	0	0	0	0	0	0	0	0	0	0	0	197872	190312	0
1651053509521	141.032	428.464	909.632	-3.36	0.77	-1.26	-46.5	-60	-868.5	0	0	0	0	0	0	0	0	0	0	0	0	0	0	0	0	0	0	181121	169749	0
1651053509531	136.64	447.008	906.216	-2.24	-1.89	-1.96	-45	-60	-867	0	0	0	0	0	0	0	0	0	0	0	0	0	0	0	0	0	0	156606	143913	0
1651053509541	153.72	461.16	911.096	-0.35	-3.15	-1.12	-46.5	-61.5	-876	0	0	0	0	0	0	0	0	0	0	0	0	0	0	0	0	0	0	132880	120636	0
1651053509551	159.088	480.192	923.784	2.38	-4.97	-0.07	-42	-64.5	-879	0	0	0	0	0	0	0	0	0	0	0	0	0	0	0	0	0	0	117346	106087	0
1651053509561	171.288	475.8	943.792	4.55	-8.05	3.43	-42	-64.5	-871.5	0	0	0	0	0	0	0	0	0	0	0	0	0	0	0	0	0	0	109726	97932	0
1651053509571	185.44	479.216	939.888	5.04	-9.38	4.62	-42	-63	-867	0	0	0	0	0	0	0	0	0	0	0	0	0	0	0	0	0	0	104257	92295	0
1651053509581	163.48	464.088	931.104	5.53	-11.9	5.18	-40.5	-61.5	-871.5	0	0	0	0	0	0	0	0	0	0	0	0	0	0	0	0	0	0	90790	79757	0
1651053509591	168.36	508.984	906.216	6.23	-14.98	4.55	-43.5	-66	-873	0	0	0	0	0	0	0	0	0	0	0	0	0	0	0	0	0	0	76282	67533	0
1651053509601	197.64	445.544	883.28	6.86	-14.56	11.27	-42	-64.5	-870	0	0	0	0	0	0	0	0	0	0	0	0	0	0	0	0	0	0	65955	59630	0
1651053509611	159.088	442.616	884.744	7	-12.32	10.22	-40.5	-63	-870	0	0	0	0	0	0	0	0	0	0	0	0	0	0	0	0	0	0	60289	54851	0
1651053509621	166.408	425.536	876.936	5.95	-9.31	5.95	-42	-69	-870	0	0	0	0	0	0	0	0	0	0	0	0	0	0	0	0	0	0	55780	50873	0
1651053509631	155.184	418.704	877.912	3.57	-6.79	2.38	-43.5	-70.5	-870	0	0	0	0	0	0	0	0	0	0	0	0	0	0	0	0	0	0	50483	46786	0
1651053509641	145.912	424.56	886.208	1.05	-3.08	-3.64	-45	-69	-868.5	0	0	0	0	0	0	0	0	0	0	0	0	0	0	0	0	0	0	45147	41583	0
1651053509651	168.36	432.856	889.136	-1.47	1.33	-8.12	-40.5	-64.5	-865.5	0	0	0	0	0	0	0	0	0	0	0	0	0	0	0	0	0	0	38389	35530	0
1651053509661	173.24	471.896	878.4	-2.38	2.1	-7.14	-37.5	-67.5	-870	0	0	0	0	0	0	0	0	0	0	0	0	0	0	0	0	0	0	31759	30120	0
1651053509671	204.472	498.736	865.712	-1.4	-1.47	-6.16	-42	-67.5	-870	0	0	0	0	0	0	0	0	0	0	0	0	0	0	0	0	0	0	27035	25607	0
1651053509681	205.448	499.712	864.736	0.14	-0.07	-3.85	-43.5	-69	-870	0	0	0	0	0	0	0	0	0	0	0	0	0	0	0	0	0	0	23186	22314	0
1651053509691	197.152	481.656	869.616	1.47	-2.94	-2.03	-45	-69	-870	0	0	0	0	0	0	0	0	0	0	0	0	0	0	0	0	0	0	20735	20342	0
1651053509701	186.904	487.512	874.496	4.83	-8.96	0.42	-48	-66	-871.5	0	0	0	0	0	0	0	0	0	0	0	0	0	0	0	0	0	0	19618	19547	0
1651053509711	174.216	502.64	880.352	4.97	-8.12	0.77	-45	-72	-870	0	0	0	0	0	0	0	0	0	0	0	0	0	0	0	0	0	0	19576	19688	0
1651053509721	170.312	508.496	903.776	2.38	-8.33	-0.49	-45	-73.5	-867	0	0	0	0	0	0	0	0	0	0	0	0	0	0	0	0	0	0	20282	20496	0
1651053509731	167.872	468.48	910.608	2.1	-6.58	0.07	-46.5	-73.5	-873	0	0	0	0	0	0	0	0	0	0	0	0	0	0	0	0	0	0	20978	21187	0
1651053509741	186.416	488	898.408	2.24	-8.12	0.21	-43.5	-73.5	-873	0	0	0	0	0	0	0	0	0	0	0	0	0	0	0	0	0	0	21455	21673	0
1651053509751	196.176	480.68	890.112	2.1	-7.7	1.4	-46.5	-75	-870	0	0	0	0	0	0	0	0	0	0	0	0	0	0	0	0	0	0	22019	22255	0
1651053509761	179.584	470.92	879.376	1.47	-4.41	0.98	-45	-79.5	-867	0	0	0	0	0	0	0	0	0	0	0	0	0	0	0	0	0	0	21843	22085	0
1651053509771	182.024	488.976	881.328	0.98	-1.75	0	-46.5	-78	-870	0	0	0	0	0	0	0	0	0	0	0	0	0	0	0	0	0	0	20916	21122	0
1651053509781	204.96	473.848	875.472	0.63	-1.05	-0.21	-42	-72	-865.5	0	0	0	0	0	0	0	0	0	0	0	0	0	0	0	0	0	0	19688	20002	0
1651053509791	191.784	482.144	877.424	0.35	1.33	0.56	-42	-75	-861	0	0	0	0	0	0	0	0	0	0	0	0	0	0	0	0	0	0	18550	18970	0
1651053509801	190.32	479.216	880.352	1.26	0.84	2.52	-43.5	-76.5	-862.5	0	0	0	0	0	0	0	0	0	0	0	0	0	0	0	0	0	0	17248	17713	0
1651053509811	193.248	473.848	872.544	0.63	1.19	1.4	-40.5	-78	-862.5	0	0	0	0	0	0	0	0	0	0	0	0	0	0	0	0	0	0	15912	16417	0
1651053509821	174.704	461.648	874.984	-0.42	3.01	2.66	-43.5	-81	-864	0	0	0	0	0	0	0	0	0	0	0	0	0	0	0	0	0	0	14891	15472	0
1651053509831	162.504	446.032	879.864	-1.4	4.62	0.98	-45	-79.5	-870	0	0	0	0	0	0	0	0	0	0	0	0	0	0	0	0	0	0	14536	15188	0
1651053509841	152.744	442.128	893.528	-0.98	3.43	0.7	-48	-75	-867	0	0	0	0	0	0	0	0	0	0	0	0	0	0	0	0	0	0	14903	15649	0
1651053509851	173.24	465.552	895.968	-0.42	1.26	1.82	-48	-73.5	-865.5	0	0	0	0	0	0	0	0	0	0	0	0	0	0	0	0	0	0	15773	16533	0
1651053509861	160.064	480.68	888.16	-0.07	0.63	1.19	-43.5	-73.5	-871.5	0	0	0	0	0	0	0	0	0	0	0	0	0	0	0	0	0	0	16493	17198	0
1651053509871	164.944	484.584	897.92	0.42	0.91	1.47	-42	-75	-871.5	0	0	0	0	0	0	0	0	0	0	0	0	0	0	0	0	0	0	17051	17781	0
1651053509881	170.8	476.288	895.968	1.05	-0.14	2.03	-45	-72	-867	0	0	0	0	0	0	0	0	0	0	0	0	0	0	0	0	0	0	17965	18710	0
1651053509891	163.968	495.32	891.576	1.82	-2.03	2.73	-49.5	-67.5	-864	0	0	0	0	0	0	0	0	0	0	0	0	0	0	0	0	0	0	19554	20279	0
1651053509902	174.704	480.192	873.032	1.4	-2.66	3.08	-48	-72	-867	0	0	0	0	0	0	0	0	0	0	0	0	0	0	0	0	0	0	21896	22441	0
1651053509912	179.096	482.144	874.984	1.61	-2.1	3.99	-43.5	-69	-870	0	0	0	0	0	0	0	0	0	0	0	0	0	0	0	0	0	0	25138	25252	0
1651053509922	178.608	471.408	881.328	1.75	-2.31	4.06	-46.5	-72	-868.5	0	0	0	0	0	0	0	0	0	0	0	0	0	0	0	0	0	0	29538	28947	0
1651053509932	176.168	467.992	873.52	2.1	-3.29	3.92	-43.5	-75	-865.5	0	0	0	0	0	0	0	0	0	0	0	0	0	0	0	0	0	0	34709	33163	0
1651053509942	175.68	472.872	875.96	1.54	-2.17	3.08	-40.5	-70.5	-868.5	0	0	0	0	0	0	0	0	0	0	0	0	0	0	0	0	0	0	40745	38197	0
1651053509952	187.88	466.04	872.056	1.4	-0.91	1.05	-42	-73.5	-867	0	0	0	0	0	0	0	0	0	0	0	0	0	0	0	0	0	0	49671	46008	0
1651053509962	186.904	475.312	876.936	0.77	0.56	1.61	-43.5	-81	-868.5	0	0	0	0	0	0	0	0	0	0	0	0	0	0	0	0	0	0	67391	61488	0
1651053509972	176.656	468.48	876.936	0.49	0.28	1.19	-46.5	-81	-871.5	0	0	0	0	0	0	0	0	0	0	0	0	0	0	0	0	0	0	105743	94204	0
1651053509982	194.224	471.408	891.576	0.28	-1.05	0.77	-46.5	-75	-871.5	0	0	0	0	0	0	0	0	0	0	0	0	0	0	0	0	0	0	155531	135919	0
1651053509992	199.592	484.096	883.28	0	-1.12	0.91	-46.5	-76.5	-868.5	0	0	0	0	0	0	0	0	0	0	0	0	0	0	0	0	0	0	168195	158543	0
1651053510002	203.496	477.752	885.232	-0.7	-0.07	1.75	-43.5	-76.5	-865.5	0	0	0	0	0	0	0	0	0	0	0	0	0	0	0	0	0	0	172493	171350	0
1651053510012	192.272	476.776	890.6	-1.19	1.19	2.31	-39	-76.5	-873	0	0	0	0	0	0	0	0	0	0	0	0	0	0	0	0	0	0	171716	177167	0
1651053510022	201.544	495.32	874.984	-1.47	2.1	2.03	-43.5	-76.5	-870	0	0	0	0	0	0	0	0	0	0	0	0	0	0	0	0	0	0	171794	182834	0
1651053510032	194.712	465.064	875.96	-1.47	3.22	-0.56	-48	-76.5	-864	0	0	0	0	0	0	0	0	0	0	0	0	0	0	0	0	0	0	174610	189617	0
1651053510042	174.704	465.552	881.328	-0.98	3.01	0.84	-45	-78	-865.5	0	0	0	0	0	0	0	0	0	0	0	0	0	0	0	0	0	0	177725	196155	0
1651053510052	172.264	455.792	891.576	-0.84	2.45	0.07	-45	-75	-868.5	0	0	0	0	0	0	0	0	0	0	0	0	0	0	0	0	0	0	180915	202644	0
1651053510062	172.264	449.936	893.04	-0.84	2.59	-0.35	-46.5	-75	-868.5	0	0	0	0	0	0	0	0	0	0	0	0	0	0	0	0	0	0	183766	207931	0
1651053510072	163.968	458.232	894.504	-0.21	1.68	-1.05	-43.5	-76.5	-865.5	0	0	0	0	0	0	0	0	0	0	0	0	0	0	0	0	0	0	185494	210811	0
1651053510082	164.944	457.256	908.168	0.21	1.12	-1.75	-51	-75	-865.5	0	0	0	0	0	0	0	0	0	0	0	0	0	0	0	0	0	0	186694	212608	0
1651053510092	171.776	460.184	901.824	0	1.19	-2.17	-49.5	-72	-868.5	0	0	0	0	0	0	0	0	0	0	0	0	0	0	0	0	0	0	187654	213645	0
1651053510102	182.024	464.576	903.288	-0.14	0.35	-2.1	-48	-72	-871.5	0	0	0	0	0	0	0	0	0	0	0	0	0	0	0	0	0	0	188530	214729	0
1651053510112	193.736	454.816	887.184	1.54	-0.91	-1.33	-48	-67.5	-867	0	0	0	0	0	0	0	0	0	0	0	0	0	0	0	0	0	0	189615	215859	0
1651053510122	192.76	487.512	883.28	2.45	-1.96	0.7	-45	-67.5	-870	0	0	0	0	0	0	0	0	0	0	0	0	0	0	0	0	0	0	190862	216828	0
1651053510132	201.056	481.168	890.112	1.96	-0.91	0.14	-45	-73.5	-874.5	0	0	0	0	0	0	0	0	0	0	0	0	0	0	0	0	0	0	191468	217079	0
1651053510142	180.072	479.704	888.648	1.47	0.98	0.98	-42	-75	-871.5	0	0	0	0	0	0	0	0	0	0	0	0	0	0	0	0	0	0	191816	217151	0
1651053510152	170.8	457.744	884.256	1.75	0.42	0.63	-43.5	-72	-867	0	0	0	0	0	0	0	0	0	0	0	0	0	0	0	0	0	0	191974	217128	0
1651053510162	170.8	459.208	885.72	2.52	0.21	0.49	-46.5	-70.5	-867	0	0	0	0	0	0	0	0	0	0	0	0	0	0	0	0	0	0	192116	217157	0
1651053510172	178.12	466.04	875.96	2.8	0.56	0.77	-43.5	-69	-865.5	0	0	0	0	0	0	0	0	0	0	0	0	0	0	0	0	0	0	192275	217374	0
1651053510182	173.728	457.744	874.008	3.08	2.45	0.35	-45	-73.5	-870	0	0	0	0	0	0	0	0	0	0	0	0	0	0	0	0	0	0	192605	217884	0
1651053510192	176.168	480.68	862.296	3.71	5.74	1.54	-46.5	-70.5	-879	0	0	0	0	0	0	0	0	0	0	0	0	0	0	0	0	0	0	193018	218511	0
1651053510202	163.968	488	856.44	4.69	13.09	3.99	-40.5	-73.5	-876	0	0	0	0	0	0	0	0	0	0	0	0	0	0	0	0	0	0	193087	218738	0
1651053510212	128.832	476.288	873.032	3.15	44.31	8.47	-42	-76.5	-868.5	0	0	0	0	0	0	0	0	0	0	0	0	0	0	0	0	0	0	192817	218727	0
1651053510222	125.416	456.28	879.376	9.45	47.81	11.9	-46.5	-72	-873	0	0	0	0	0	0	0	0	0	0	0	0	0	0	0	0	0	0	192627	218927	0
1651053510232	124.928	443.104	869.616	22.19	35.07	16.38	-49.5	-69	-877.5	0	0	0	0	0	0	0	0	0	0	0	0	0	0	0	0	0	0	192923	219408	0
1651053510242	50.752	511.424	828.136	32.06	43.26	32.97	-48	-55.5	-876	0	0	0	0	0	0	0	0	0	0	0	0	0	0	0	0	0	0	193074	219657	0
1651053510252	83.448	488.488	805.2	25.2	64.12	72.17	-45	-52.5	-877.5	0	0	0	0	0	0	0	0	0	0	0	0	0	0	0	0	0	0	193136	219793	0
1651053510262	89.792	464.088	866.2	18.9	83.58	107.17	-49.5	-49.5	-883.5	0	0	0	0	0	0	0	0	0	0	0	0	0	0	0	0	0	0	193137	219822	0
1651053510272	90.768	339.648	904.752	25.13	69.51	101.99	-49.5	-39	-889.5	0	0	0	0	0	0	0	0	0	0	0	0	0	0	0	0	0	0	192913	219644	0
1651053510282	111.752	213.744	840.824	25.41	35.63	54.88	-46.5	-30	-894	0	0	0	0	0	0	0	0	0	0	0	0	0	0	0	0	0	0	192841	219563	0
1651053510292	14.64	406.504	765.184	22.05	30.73	37.59	-48	-25.5	-900	0	0	0	0	0	0	0	0	0	0	0	0	0	0	0	0	0	0	192652	219364	0
1651053510302	59.048	443.104	798.368	17.15	43.89	34.51	-49.5	-27	-901.5	0	0	0	0	0	0	0	0	0	0	0	0	0	0	0	0	0	0	192442	219076	0
1651053510312	115.656	469.944	864.736	-3.85	26.95	38.78	-45	-25.5	-898.5	0	0	0	0	0	0	0	0	0	0	0	0	0	0	0	0	0	0	192005	218683	0
1651053510322	153.232	537.776	898.896	-24.08	-13.23	52.85	-43.5	-22.5	-897	0	0	0	0	0	0	0	0	0	0	0	0	0	0	0	0	0	0	191808	218461	0
1651053510332	-45.872	447.008	806.176	-66.08	-40.11	71.26	-39	-22.5	-897	0	0	0	0	0	0	0	0	0	0	0	0	0	0	0	0	0	0	191623	218284	0
1651053510342	-52.216	557.296	647.576	-96.81	-9.8	117.18	-27	-24	-898.5	0	0	0	0	0	0	0	0	0	0	0	0	0	0	0	0	0	0	191463	218135	0
1651053510352	20.984	626.592	567.544	-103.95	53.13	152.81	-16.5	-22.5	-898.5	0	0	0	0	0	0	0	0	0	0	0	0	0	0	0	0	0	0	191383	218070	0
1651053510362	71.736	566.08	425.048	-172.34	133.84	185.57	-1.5	-15	-895.5	0	0	0	0	0	0	0	0	0	0	0	0	0	0	0	0	0	0	191286	217963	0
1651053510372	77.104	323.544	574.864	-274.26	239.82	227.57	22.5	0	-903	0	0	0	0	0	0	0	0	0	0	0	0	0	0	0	0	0	0	191146	217841	0
1651053510382	131.272	220.088	990.152	-309.47	272.09	232.54	57	24	-904.5	0	0	0	0	0	0	0	0	0	0	0	0	0	0	0	0	0	0	190994	217697	0
1651053510392	495.32	149.328	2027.64	-278.74	195.58	213.99	91.5	49.5	-898.5	0	0	0	0	0	0	0	0	0	0	0	0	0	0	0	0	0	0	190836	217505	0
1651053510402	526.552	-62.464	2881.64	35.63	-112.28	90.09	115.5	70.5	-894	0	0	0	0	0	0	0	0	0	0	0	0	0	0	0	0	0	0	190660	217326	0
1651053510412	338.184	350.872	628.056	214.9	-245.56	-43.47	114	63	-895.5	0	0	0	0	0	0	0	0	0	0	0	0	0	0	0	0	0	0	190521	217194	0
1651053510422	-27.816	351.848	410.896	120.26	-189.35	-56.91	97.5	42	-904.5	0	0	0	0	0	0	0	0	0	0	0	0	0	0	0	0	0	0	190388	217047	0
1651053510432	38.552	361.12	616.832	18.06	-114.73	-7.42	82.5	22.5	-906	0	0	0	0	0	0	0	0	0	0	0	0	0	0	0	0	0	0	190234	216930	0
1651053510442	249.856	355.752	985.272	-40.6	-65.73	24.92	73.5	4.5	-900	0	0	0	0	0	0	0	0	0	0	0	0	0	0	0	0	0	0	190154	216866	0
1651053510452	491.416	366.976	1554.28	-17.15	-88.13	26.18	72	4.5	-895.5	0	0	0	0	0	0	0	0	0	0	0	0	0	0	0	0	0	0	190083	216806	0
1651053510462	394.304	300.12	1088.24	97.58	-136.57	-7.28	76.5	-7.5	-888	0	0	0	0	0	0	0	0	0	0	0	0	0	0	0	0	0	0	189978	216720	0
1651053510472	123.464	259.616	543.632	101.71	-134.05	-16.38	75	-22.5	-892.5	0	0	0	0	0	0	0	0	0	0	0	0	0	0	0	0	0	0	189875	216645	0
1651053510482	-144.936	281.576	401.624	-6.65	-47.04	7.49	64.5	-30	-894	0	0	0	0	0	0	0	0	0	0	0	0	0	0	0	0	0	0	189741	216545	0
1651053510492	-164.944	311.832	653.432	-114.87	64.68	59.36	67.5	-33	-894	0	0	0	0	0	0	0	0	0	0	0	0	0	0	0	0	0	0	189654	216477	0
1651053510502	140.056	353.312	1031.632	-162.26	68.39	142.17	82.5	-27	-891	0	0	0	0	0	0	0	0	0	0	0	0	0	0	0	0	0	0	189541	216420	0
1651053510512	658.8	170.312	1260.992	-208.81	63.91	178.22	106.5	-22.5	-885	0	0	0	0	0	0	0	0	0	0	0	0	0	0	0	0	0	0	189491	216407	0
1651053510522	639.768	194.712	1200.968	-119.07	58.59	117.32	132	-10.5	-880.5	0	0	0	0	0	0	0	0	0	0	0	0	0	0	0	0	0	0	189445	216410	0
1651053510532	456.28	219.6	930.128	-68.67	57.12	47.74	154.5	3	-876	0	0	0	0	0	0	0	0	0	0	0	0	0	0	0	0	0	0	189380	216348	0
1651053510542	277.184	214.232	962.336	-62.79	56.7	12.18	154.5	9	-871.5	0	0	0	0	0	0	0	0	0	0	0	0	0	0	0	0	0	0	189315	216311	0
1651053510552	181.048	142.008	977.952	-77.63	39.27	23.24	165	13.5	-871.5	0	0	0	0	0	0	0	0	0	0	0	0	0	0	0	0	0	0	189219	216247	0
1651053510562	215.208	216.184	972.096	-84.84	26.18	27.09	181.5	22.5	-864	0	0	0	0	0	0	0	0	0	0	0	0	0	0	0	0	0	0	189091	216134	0
1651053510572	193.248	193.248	943.304	-80.15	39.76	24.22	189	27	-858	0	0	0	0	0	0	0	0	0	0	0	0	0	0	0	0	0	0	188956	216018	0
1651053510582	150.792	138.592	784.216	-79.8	65.66	32.13	199.5	30	-855	0	0	0	0	0	0	0	0	0	0	0	0	0	0	0	0	0	0	188744	215924	0
1651053510592	67.344	182.024	668.072	-104.09	101.85	44.17	204	40.5	-855	0	0	0	0	0	0	0	0	0	0	0	0	0	0	0	0	0	0	188650	215937	0
1651053510602	81.008	85.4	628.056	-163.52	136.85	69.65	211.5	51	-844.5	0	0	0	0	0	0	0	0	0	0	0	0	0	0	0	0	0	0	188681	215959	0
1651053510612	292.312	55.632	2214.056	-111.44	111.72	33.46	229.5	63	-841.5	0	0	0	0	0	0	0	0	0	0	0	0	0	0	0	0	0	0	188786	215985	0
1651053510622	-199.104	81.008	583.16	-31.99	125.93	37.73	240	73.5	-840	0	0	0	0	0	0	0	0	0	0	0	0	0	0	0	0	0	0	188778	215946	0
1651053510632	-261.568	142.984	514.84	-102.62	195.58	116.76	244.5	88.5	-837	0	0	0	0	0	0	0	0	0	0	0	0	0	0	0	0	0	0	188673	215848	0
1651053510642	-148.352	98.088	438.224	-149.87	289.31	177.66	253.5	105	-831	0	0	0	0	0	0	0	0	0	0	0	0	0	0	0	0	0	0	188542	215799	0
1651053510652	-92.72	39.04	522.648	-157.85	429.8	218.75	274.5	138	-817.5	0	0	0	0	0	0	0	0	0	0	0	0	0	0	0	0	0	0	188505	215821	0
1651053510662	-1003.816	-10.248	2125.24	-128.94	223.16	129.71	283.5	180	-816	0	0	0	0	0	0	0	0	0	0	0	0	0	0	0	0	0	0	188455	215840	0
1651053510672	110.776	-75.152	564.128	21.7	-20.23	131.67	289.5	207	-817.5	0	0	0	0	0	0	0	0	0	0	0	0	0	0	0	0	0	0	188399	215852	0
1651053510682	134.688	-223.016	1279.048	-3.64	24.71	91.35	292.5	214.5	-819	0	0	0	0	0	0	0	0	0	0	0	0	0	0	0	0	0	0	188247	215835	0
1651053510692	55.144	7.32	1026.264	-1.82	12.81	81.97	286.5	225	-820.5	0	0	0	0	0	0	0	0	0	0	0	0	0	0	0	0	0	0	188073	215749	0
1651053510702	169.824	-27.816	1103.368	-1.4	-2.94	63.07	286.5	237	-817.5	0	0	0	0	0	0	0	0	0	0	0	0	0	0	0	0	0	0	187889	215651	0
1651053510712	309.392	84.912	1105.32	-2.17	0.77	73.99	294	237	-814.5	0	0	0	0	0	0	0	0	0	0	0	0	0	0	0	0	0	0	187732	215553	0
1651053510722	357.704	-25.376	1013.576	-0.35	-0.77	38.08	298.5	243	-820.5	0	0	0	0	0	0	0	0	0	0	0	0	0	0	0	0	0	0	187602	215497	0
1651053510732	276.696	-27.816	1039.928	0.07	0	18.06	292.5	249	-820.5	0	0	0	0	0	0	0	0	0	0	0	0	0	0	0	0	0	0	187466	215434	0
1651053510743	-23.424	9.76	1058.96	0.91	0.98	2.24	289.5	252	-817.5	0	0	0	0	0	0	0	0	0	0	0	0	0	0	0	0	0	0	187377	215393	0
1651053510753	101.992	23.424	1016.504	1.26	-0.49	-6.93	291	258	-823.5	0	0	0	0	0	0	0	0	0	0	0	0	0	0	0	0	0	0	187302	215374	0
1651053510763	154.696	-5.856	1033.096	2.31	-0.14	-20.86	292.5	255	-823.5	0	0	0	0	0	0	0	0	0	0	0	0	0	0	0	0	0	0	187222	215395	0
1651053510773	84.912	5.368	1040.904	0.07	0.42	-20.86	295.5	246	-820.5	0	0	0	0	0	0	0	0	0	0	0	0	0	0	0	0	0	0	187211	215413	0
1651053510783	106.872	3.904	1014.064	1.05	0.35	-26.39	297	244.5	-817.5	0	0	0	0	0	0	0	0	0	0	0	0	0	0	0	0	0	0	187187	215408	0
1651053510793	-20.496	-10.736	937.936	0.49	-1.4	-28.98	298.5	244.5	-819	0	0	0	0	0	0	0	0	0	0	0	0	0	0	0	0	0	0	187169	215400	0
1651053510803	-143.96	15.616	972.584	2.03	2.03	-27.16	292.5	243	-823.5	0	0	0	0	0	0	0	0	0	0	0	0	0	0	0	0	0	0	187146	215388	0
1651053510813	-216.672	-2.928	993.568	2.1	2.38	-21.84	289.5	244.5	-823.5	0	0	0	0	0	0	0	0	0	0	0	0	0	0	0	0	0	0	187108	215333	0
1651053510823	-216.672	1.952	1015.04	0.35	-0.14	-1.61	295.5	240	-823.5	0	0	0	0	0	0	0	0	0	0	0	0	0	0	0	0	0	0	187232	216028	0
1651053510833	-36.6	-3.904	1006.256	0.7	-0.21	0.77	300	238.5	-826.5	0	0	0	0	0	0	0	0	0	0	0	0	0	0	0	0	0	0	187307	216221	0
1651053510843	-53.192	-0.488	1000.4	0.63	0.07	3.43	298.5	234	-826.5	0	0	0	0	0	0	0	0	0	0	0	0	0	0	0	0	0	0	187325	216341	0
1651053510853	-80.52	-4.392	1003.816	-0.28	-0.28	7.07	291	237	-825	0	0	0	0	0	0	0	0	0	0	0	0	0	0	0	0	0	0	187371	216556	0
1651053510863	-81.984	10.736	1031.144	-0.84	-0.14	8.75	291	241.5	-823.5	0	0	0	0	0	0	0	0	0	0	0	0	0	0	0	0	0	0	187387	216679	0
1651053510873	-78.568	10.248	1017.48	0	-0.77	10.01	285	241.5	-823.5	0	0	0	0	0	0	0	0	0	0	0	0	0	0	0	0	0	0	187435	216850	0
1651053510883	-13.176	0.976	1029.192	0.14	-0.84	11.55	286.5	240	-820.5	0	0	0	0	0	0	0	0	0	0	0	0	0	0	0	0	0	0	187494	217011	0
1651053510893	31.232	3.416	1023.824	1.12	-0.21	6.02	294	240	-819	0	0	0	0	0	0	0	0	0	0	0	0	0	0	0	0	0	0	187498	217062	0
1651053510903	75.152	-4.88	1013.088	0.56	-0.07	0.42	291	235.5	-820.5	0	0	0	0	0	0	0	0	0	0	0	0	0	0	0	0	0	0	187499	217094	0
1651053510913	-18.544	-9.272	1029.68	-0.21	0.14	0	286.5	235.5	-820.5	0	0	0	0	0	0	0	0	0	0	0	0	0	0	0	0	0	0	187504	217134	0
1651053510923	-32.696	0	1016.016	0.21	-0.35	0.28	289.5	238.5	-823.5	0	0	0	0	0	0	0	0	0	0	0	0	0	0	0	0	0	0	187531	217229	0
1651053510933	-25.864	8.296	1025.776	0.21	-0.14	0.42	291	235.5	-822	0	0	0	0	0	0	0	0	0	0	0	0	0	0	0	0	0	0	187548	217316	0
1651053510943	-28.792	-2.928	1031.144	0.21	-0.07	0.28	291	240	-822	0	0	0	0	0	0	0	0	0	0	0	0	0	0	0	0	0	0	187538	217387	0
1651053510953	10.248	10.248	1028.216	1.26	0.07	-5.39	285	235.5	-822	0	0	0	0	0	0	0	0	0	0	0	0	0	0	0	0	0	0	187552	217408	0
1651053510963	47.336	-10.736	1025.288	2.73	-0.35	-17.85	288	237	-822	0	0	0	0	0	0	0	0	0	0	0	0	0	0	0	0	0	0	187536	217420	0
1651053510973	166.896	2.928	1036.512	1.89	0.49	-21.63	288	243	-823.5	0	0	0	0	0	0	0	0	0	0	0	0	0	0	0	0	0	0	187505	217395	0
1651053510983	179.096	-2.44	1028.704	1.68	0.07	-26.18	286.5	234	-822	0	0	0	0	0	0	0	0	0	0	0	0	0	0	0	0	0	0	187471	217337	0
1651053510993	41.48	-21.472	1062.376	2.17	-0.77	-34.65	292.5	237	-822	0	0	0	0	0	0	0	0	0	0	0	0	0	0	0	0	0	0	187438	217264	0
1651053511003	-1.952	9.272	974.536	1.68	0.49	-38.64	292.5	238.5	-820.5	0	0	0	0	0	0	0	0	0	0	0	0	0	0	0	0	0	0	187391	217238	0
1651053511013	-12.688	40.016	979.904	1.47	-0.91	-38.01	294	234	-819	0	0	0	0	0	0	0	0	0	0	0	0	0	0	0	0	0	0	187384	217256	0
1651053511023	-110.776	0.976	1044.808	1.47	0	-35	295.5	225	-817.5	0	0	0	0	0	0	0	0	0	0	0	0	0	0	0	0	0	0	187398	217328	0
1651053511033	-136.64	0	1071.648	0.56	1.68	-33.39	297	220.5	-817.5	0	0	0	0	0	0	0	0	0	0	0	0	0	0	0	0	0	0	187404	217335	0
1651053511043	253.76	382.104	1089.704	3.64	0.84	-10.85	292.5	217.5	-819	0	0	0	0	0	0	0	0	0	0	0	0	0	0	0	0	0	0	187386	217341	0
1651053511053	-229.848	26.84	1048.712	-0.91	-0.14	4.13	291	213	-819	0	0	0	0	0	0	0	0	0	0	0	0	0	0	0	0	0	0	187382	217363	0
1651053511063	-98.576	27.816	1010.16	1.05	0.07	-6.65	291	219	-820.5	0	0	0	0	0	0	0	0	0	0	0	0	0	0	0	0	0	0	187370	217347	0
1651053511073	-27.816	-29.768	1006.256	0.35	-0.42	2.94	289.5	219	-823.5	0	0	0	0	0	0	0	0	0	0	0	0	0	0	0	0	0	0	187391	217409	0
1651053511083	-63.44	3.904	1026.752	0.35	-0.21	-2.17	288	216	-820.5	0	0	0	0	0	0	0	0	0	0	0	0	0	0	0	0	0	0	187394	217459	0
1651053511093	-42.944	13.664	1015.528	0.63	-0.14	0.49	289.5	220.5	-817.5	0	0	0	0	0	0	0	0	0	0	0	0	0	0	0	0	0	0	187397	217498	0
1651053511103	-49.288	7.32	1037.976	0.21	-0.14	3.08	291	216	-817.5	0	0	0	0	0	0	0	0	0	0	0	0	0	0	0	0	0	0	187418	217551	0
1651053511113	-48.8	5.368	1030.168	0.84	-0.07	-0.21	283.5	211.5	-816	0	0	0	0	0	0	0	0	0	0	0	0	0	0	0	0	0	0	187433	217591	0
1651053511123	-40.992	-0.488	1019.432	0.7	-0.21	-0.77	283.5	214.5	-816	0	0	0	0	0	0	0	0	0	0	0	0	0	0	0	0	0	0	187447	217584	0
1651053511133	-29.768	0	1009.184	0.91	-0.28	-0.63	288	217.5	-822	0	0	0	0	0	0	0	0	0	0	0	0	0	0	0	0	0	0	187421	217566	0
1651053511143	-14.64	-3.904	1014.552	0.77	-0.49	-2.59	288	217.5	-820.5	0	0	0	0	0	0	0	0	0	0	0	0	0	0	0	0	0	0	187423	217603	0
1651053511153	-32.208	3.416	1024.8	0.84	-0.35	-4.06	288	214.5	-822	0	0	0	0	0	0	0	0	0	0	0	0	0	0	0	0	0	0	187431	217627	0
1651053511163	-31.232	-0.488	1016.504	0.56	-0.56	-2.38	283.5	216	-822	0	0	0	0	0	0	0	0	0	0	0	0	0	0	0	0	0	0	187432	217639	0
1651053511173	-26.84	-0.976	1016.504	0.7	-0.49	-1.33	285	214.5	-817.5	0	0	0	0	0	0	0	0	0	0	0	0	0	0	0	0	0	0	187440	217660	0
1651053511183	-40.016	15.616	1026.264	-0.07	-0.35	-0.56	289.5	217.5	-817.5	0	0	0	0	0	0	0	0	0	0	0	0	0	0	0	0	0	0	187457	217738	0
1651053511193	-23.912	-3.416	1029.68	0.42	-0.14	0.35	291	219	-816	0	0	0	0	0	0	0	0	0	0	0	0	0	0	0	0	0	0	187507	217840	0
1651053511203	-23.912	-1.464	1015.528	0.63	-0.28	0.49	292.5	213	-819	0	0	0	0	0	0	0	0	0	0	0	0	0	0	0	0	0	0	187541	217962	0
1651053511213	-29.768	6.832	1018.944	0.35	-0.21	0.42	288	211.5	-817.5	0	0	0	0	0	0	0	0	0	0	0	0	0	0	0	0	0	0	187578	218071	0
1651053511223	-21.96	-4.88	1015.528	0.35	-0.14	0.42	285	213	-816	0	0	0	0	0	0	0	0	0	0	0	0	0	0	0	0	0	0	187609	218177	0
1651053511233	-29.768	1.464	1017.968	0.56	-0.14	0.35	288	214.5	-816	0	0	0	0	0	0	0	0	0	0	0	0	0	0	0	0	0	0	187667	218307	0
1651053511243	-26.84	0.488	1020.896	0.28	-0.14	0.42	294	219	-814.5	0	0	0	0	0	0	0	0	0	0	0	0	0	0	0	0	0	0	187703	218421	0
1651053511253	-4.392	2.44	1019.432	-1.68	-0.35	2.03	291	217.5	-817.5	0	0	0	0	0	0	0	0	0	0	0	0	0	0	0	0	0	0	187713	218486	0
1651053511263	12.2	-45.384	1033.096	0.28	-1.54	0.21	286.5	210	-814.5	0	0	0	0	0	0	0	0	0	0	0	0	0	0	0	0	0	0	187737	218550	0
1651053511273	-46.848	43.92	1067.256	-0.35	-0.49	3.15	291	213	-814.5	0	0	0	0	0	0	0	0	0	0	0	0	0	0	0	0	0	0	187795	218695	0
1651053511283	-24.888	1.952	1021.872	0.98	-0.07	3.57	288	219	-817.5	0	0	0	0	0	0	0	0	0	0	0	0	0	0	0	0	0	0	187825	218776	0
1651053511293	-40.016	31.232	997.472	0.77	-0.07	5.6	285	217.5	-819	0	0	0	0	0	0	0	0	0	0	0	0	0	0	0	0	0	0	187863	218870	0
1651053511303	-28.304	11.712	1013.576	-0.56	-0.35	4.41	289.5	216	-817.5	0	0	0	0	0	0	0	0	0	0	0	0	0	0	0	0	0	0	187888	218930	0
1651053511313	-1.952	-44.408	1058.96	0.21	-0.28	3.36	291	213	-816	0	0	0	0	0	0	0	0	0	0	0	0	0	0	0	0	0	0	187882	218946	0
1651053511323	-69.784	-16.592	1125.328	-3.5	-0.63	3.92	291	214.5	-816	0	0	0	0	0	0	0	0	0	0	0	0	0	0	0	0	0	0	187888	218978	0
1651053511333	-35.624	-4.88	983.808	-0.56	-0.21	3.57	288	217.5	-811.5	0	0	0	0	0	0	0	0	0	0	0	0	0	0	0	0	0	0	187901	219041	0
1651053511343	-16.592	-14.64	1029.192	-0.14	-0.63	1.54	286.5	214.5	-811.5	0	0	0	0	0	0	0	0	0	0	0	0	0	0	0	0	0	0	187923	219090	0
1651053511353	-23.912	-6.832	1037.976	0.7	-0.42	4.06	286.5	214.5	-816	0	0	0	0	0	0	0	0	0	0	0	0	0	0	0	0	0	0	187929	219139	0
1651053511363	-27.328	-8.296	1021.872	0.77	-0.35	5.18	282	213	-819	0	0	0	0	0	0	0	0	0	0	0	0	0	0	0	0	0	0	187980	219222	0
1651053511373	19.032	-3.904	1023.336	0	-0.28	5.81	285	213	-819	0	0	0	0	0	0	0	0	0	0	0	0	0	0	0	0	0	0	188025	219313	0
1651053511383	-66.368	18.544	1019.92	0.84	-0.28	4.41	292.5	214.5	-820.5	0	0	0	0	0	0	0	0	0	0	0	0	0	0	0	0	0	0	188067	219408	0
1651053511393	-37.088	12.688	1019.92	-0.07	-0.21	3.36	292.5	216	-820.5	0	0	0	0	0	0	0	0	0	0	0	0	0	0	0	0	0	0	188098	219516	0
1651053511403	-25.864	10.248	1033.096	-0.21	-0.35	0.35	288	211.5	-814.5	0	0	0	0	0	0	0	0	0	0	0	0	0	0	0	0	0	0	188147	219608	0
1651053511413	-28.304	3.904	1016.992	-0.42	-1.33	-0.14	289.5	213	-814.5	0	0	0	0	0	0	0	0	0	0	0	0	0	0	0	0	0	0	188205	219699	0
1651053511423	-21.472	-1.464	1014.064	-1.05	-3.85	-0.63	294	220.5	-819	0	0	0	0	0	0	0	0	0	0	0	0	0	0	0	0	0	0	188226	219739	0
1651053511433	-16.104	-80.52	1023.336	2.94	0.42	13.23	292.5	220.5	-819	0	0	0	0	0	0	0	0	0	0	0	0	0	0	0	0	0	0	188247	219786	0
1651053511443	-10.736	-1.464	1106.784	-1.19	3.22	44.73	289.5	214.5	-813	0	0	0	0	0	0	0	0	0	0	0	0	0	0	0	0	0	0	188272	219853	0
1651053511453	-47.336	92.232	899.872	1.26	4.34	30.66	289.5	219	-813	0	0	0	0	0	0	0	0	0	0	0	0	0	0	0	0	0	0	188300	219894	0
1651053511463	-18.544	47.336	1063.352	-3.01	-13.79	8.61	289.5	225	-817.5	0	0	0	0	0	0	0	0	0	0	0	0	0	0	0	0	0	0	188304	219915	0
1651053511473	-28.792	-8.296	953.552	-0.14	0.77	7.56	285	222	-822	0	0	0	0	0	0	0	0	0	0	0	0	0	0	0	0	0	0	188304	219910	0
1651053511483	-18.544	-20.984	1005.768	1.33	-0.21	10.64	283.5	217.5	-823.5	0	0	0	0	0	0	0	0	0	0	0	0	0	0	0	0	0	0	188284	219867	0
1651053511493	-1.952	-19.52	1034.072	-0.28	-0.28	13.16	283.5	214.5	-816	0	0	0	0	0	0	0	0	0	0	0	0	0	0	0	0	0	0	188250	219808	0
1651053511503	-35.624	-56.608	1038.464	-0.35	-1.05	10.71	285	219	-823.5	0	0	0	0	0	0	0	0	0	0	0	0	0	0	0	0	0	0	188202	219703	0
1651053511513	-14.152	-70.76	1037	-1.54	-1.33	17.29	286.5	225	-816	0	0	0	0	0	0	0	0	0	0	0	0	0	0	0	0	0	0	188124	219589	0
1651053511523	56.12	1.464	1014.064	-0.14	-0.07	17.15	282	226.5	-811.5	0	0	0	0	0	0	0	0	0	0	0	0	0	0	0	0	0	0	188048	219456	0
1651053511533	-23.912	103.944	1013.576	0.77	-1.47	0.07	282	231	-816	0	0	0	0	0	0	0	0	0	0	0	0	0	0	0	0	0	0	187979	219309	0
1651053511543	-83.448	62.952	1007.72	0.14	-0.07	-5.88	282	234	-811.5	0	0	0	0	0	0	0	0	0	0	0	0	0	0	0	0	0	0	187915	219193	0
1651053511553	-43.92	-12.688	1016.016	1.4	-0.28	-9.73	277.5	229.5	-813	0	0	0	0	0	0	0	0	0	0	0	0	0	0	0	0	0	0	187845	219087	0
1651053511563	-35.624	6.344	1019.92	1.05	0.56	-5.6	279	226.5	-816	0	0	0	0	0	0	0	0	0	0	0	0	0	0	0	0	0	0	187817	219020	0
1651053511573	-62.952	-3.416	1018.456	1.05	0.42	-4.48	280.5	228	-820.5	0	0	0	0	0	0	0	0	0	0	0	0	0	0	0	0	0	0	187795	218985	0
1651053511583	-11.224	-2.928	1024.8	1.33	1.47	-4.62	279	229.5	-814.5	0	0	0	0	0	0	0	0	0	0	0	0	0	0	0	0	0	0	187780	218967	0
1651053511593	-21.96	-3.416	1017.48	1.68	2.45	-4.62	276	229.5	-811.5	0	0	0	0	0	0	0	0	0	0	0	0	0	0	0	0	0	0	187795	218970	0
1651053511603	-80.032	-14.64	1012.6	0.14	-0.49	-2.31	274.5	226.5	-817.5	0	0	0	0	0	0	0	0	0	0	0	0	0	0	0	0	0	0	187785	219002	0
1651053511613	-22.936	5.856	1003.816	0.7	-0.49	0.63	280.5	229.5	-822	0	0	0	0	0	0	0	0	0	0	0	0	0	0	0	0	0	0	187770	218947	0
1651053511623	-65.392	-0.488	998.448	0.63	-0.77	5.04	283.5	231	-817.5	0	0	0	0	0	0	0	0	0	0	0	0	0	0	0	0	0	0	187761	218932	0
1651053511633	-18.056	-4.392	1031.632	-1.33	-2.94	11.06	277.5	229.5	-814.5	0	0	0	0	0	0	0	0	0	0	0	0	0	0	0	0	0	0	187749	218931	0
1651053511643	9.76	-9.76	1014.552	0.28	-0.63	3.36	279	226.5	-813	0	0	0	0	0	0	0	0	0	0	0	0	0	0	0	0	0	0	187764	218972	0
1651053511653	-20.984	0.976	1011.136	0.42	-0.21	0.28	282	232.5	-814.5	0	0	0	0	0	0	0	0	0	0	0	0	0	0	0	0	0	0	187776	218987	0
1651053511663	-20.984	7.808	1024.312	0.35	-0.14	0.49	279	231	-816	0	0	0	0	0	0	0	0	0	0	0	0	0	0	0	0	0	0	187774	219021	0
1651053511673	-31.232	6.344	1025.288	0.28	-0.21	0.49	277.5	223.5	-813	0	0	0	0	0	0	0	0	0	0	0	0	0	0	0	0	0	0	187791	219052	0
1651053511683	-24.888	2.928	1021.872	0.42	-0.28	0.28	276	222	-811.5	0	0	0	0	0	0	0	0	0	0	0	0	0	0	0	0	0	0	187795	219065	0
1651053511693	-19.032	2.44	1020.896	0.49	-0.28	0.21	277.5	225	-811.5	0	0	0	0	0	0	0	0	0	0	0	0	0	0	0	0	0	0	187811	219056	0
1651053511703	-24.4	0.976	1021.872	0.42	-0.35	0.35	279	229.5	-817.5	0	0	0	0	0	0	0	0	0	0	0	0	0	0	0	0	0	0	187804	219058	0
1651053511713	-24.4	-1.952	1021.384	0.42	-0.35	0.35	283.5	229.5	-816	0	0	0	0	0	0	0	0	0	0	0	0	0	0	0	0	0	0	187788	219046	0
1651053511723	-20.008	1.464	1023.336	0.35	-0.21	0.35	280.5	231	-811.5	0	0	0	0	0	0	0	0	0	0	0	0	0	0	0	0	0	0	187788	219059	0
1651053511733	-33.672	0	1022.848	0.35	-0.21	0.35	282	234	-816	0	0	0	0	0	0	0	0	0	0	0	0	0	0	0	0	0	0	187767	219027	0
1651053511743	-18.056	1.952	1028.216	0.28	-0.21	0.35	280.5	228	-816	0	0	0	0	0	0	0	0	0	0	0	0	0	0	0	0	0	0	187766	219038	0
1651053511753	-20.984	-6.344	1025.288	0.28	-0.28	0.35	276	229.5	-816	0	0	0	0	0	0	0	0	0	0	0	0	0	0	0	0	0	0	187771	219042	0
1651053511763	-15.616	-1.952	1021.384	0.35	-0.28	0.35	276	231	-814.5	0	0	0	0	0	0	0	0	0	0	0	0	0	0	0	0	0	0	187765	219053	0
1651053511773	-20.008	-2.44	1022.36	0.35	-0.28	0.42	280.5	229.5	-814.5	0	0	0	0	0	0	0	0	0	0	0	0	0	0	0	0	0	0	187768	219050	0
1651053511783	-17.568	4.88	1017.48	0.28	-0.28	0.49	277.5	228	-819	0	0	0	0	0	0	0	0	0	0	0	0	0	0	0	0	0	0	187746	218992	0
1651053511793	-30.256	2.928	1018.456	0.42	-0.21	0.42	279	228	-816	0	0	0	0	0	0	0	0	0	0	0	0	0	0	0	0	0	0	187721	218964	0
1651053511803	-33.184	4.392	1022.36	0.28	-0.21	0.28	283.5	231	-813	0	0	0	0	0	0	0	0	0	0	0	0	0	0	0	0	0	0	187706	218957	0
1651053511813	-23.912	0	1022.36	0.35	-0.28	0.28	279	228	-814.5	0	0	0	0	0	0	0	0	0	0	0	0	0	0	0	0	0	0	187682	218895	0
1651053511823	-24.888	-9.76	1026.752	0.28	-0.35	0.35	276	226.5	-813	0	0	0	0	0	0	0	0	0	0	0	0	0	0	0	0	0	0	187650	218876	0
1651053511833	-27.816	-0.976	1021.872	0.35	-0.28	0.35	280.5	223.5	-816	0	0	0	0	0	0	0	0	0	0	0	0	0	0	0	0	0	0	187629	218816	0
1651053511843	-21.96	0	1017.968	0.35	-0.28	0.42	282	225	-814.5	0	0	0	0	0	0	0	0	0	0	0	0	0	0	0	0	0	0	187598	218749	0
1651053511853	-23.424	5.368	1018.456	0.35	-0.35	0.42	280.5	234	-810	0	0	0	0	0	0	0	0	0	0	0	0	0	0	0	0	0	0	187563	218689	0
1651053511863	-25.864	-1.464	1021.384	0.35	-0.21	0.42	282	234	-810	0	0	0	0	0	0	0	0	0	0	0	0	0	0	0	0	0	0	187522	218614	0
1651053511873	-24.888	-1.952	1027.24	0.35	-0.21	0.42	289.5	232.5	-816	0	0	0	0	0	0	0	0	0	0	0	0	0	0	0	0	0	0	187485	218573	0
1651053511883	-20.496	-4.392	1024.8	0.35	-0.21	0.42	285	225	-816	0	0	0	0	0	0	0	0	0	0	0	0	0	0	0	0	0	0	187479	218559	0
1651053511893	-25.376	2.928	1018.944	0.28	-0.21	0.42	279	225	-817.5	0	0	0	0	0	0	0	0	0	0	0	0	0	0	0	0	0	0	187476	218549	0
1651053511903	-31.72	3.416	1019.432	0.42	-0.42	0.49	279	229.5	-814.5	0	0	0	0	0	0	0	0	0	0	0	0	0	0	0	0	0	0	187472	218583	0
1651053511913	-44.408	12.2	1020.408	0.49	-0.42	0.42	277.5	226.5	-814.5	0	0	0	0	0	0	0	0	0	0	0	0	0	0	0	0	0	0	187486	218573	0
1651053511923	-30.744	-0.488	1020.408	0.42	-0.28	0.42	276	223.5	-813	0	0	0	0	0	0	0	0	0	0	0	0	0	0	0	0	0	0	187481	218606	0
1651053511933	-22.936	-15.128	1023.824	0.21	-0.42	0.28	277.5	232.5	-813	0	0	0	0	0	0	0	0	0	0	0	0	0	0	0	0	0	0	187499	218635	0
1651053511943	-6.344	-21.472	1027.24	0.35	-0.28	0.28	277.5	231	-814.5	0	0	0	0	0	0	0	0	0	0	0	0	0	0	0	0	0	0	187512	218661	0
1651053511953	-7.32	-5.368	1025.288	0.35	-0.28	0.42	279	229.5	-810	0	0	0	0	0	0	0	0	0	0	0	0	0	0	0	0	0	0	187523	218676	0
1651053511963	-29.768	19.032	1024.312	0.42	-0.28	0.56	280.5	232.5	-807	0	0	0	0	0	0	0	0	0	0	0	0	0	0	0	0	0	0	187522	218710	0
1651053511973	-46.36	23.424	1020.408	0.35	-0.35	0.42	279	229.5	-807	0	0	0	0	0	0	0	0	0	0	0	0	0	0	0	0	0	0	187536	218748	0
1651053511983	-34.648	6.344	1016.992	0.42	-0.21	0.49	282	229.5	-810	0	0	0	0	0	0	0	0	0	0	0	0	0	0	0	0	0	0	187558	218781	0
1651053511993	-24.888	-1.464	1025.776	0.21	-0.42	0.42	282	226.5	-814.5	0	0	0	0	0	0	0	0	0	0	0	0	0	0	0	0	0	0	187561	218795	0
1651053512003	-15.128	2.44	1023.824	0.35	-0.21	0.28	277.5	226.5	-813	0	0	0	0	0	0	0	0	0	0	0	0	0	0	0	0	0	0	187569	218811	0
1651053512013	-1.464	-11.712	1030.168	0.35	-0.21	0.28	283.5	228	-813	0	0	0	0	0	0	0	0	0	0	0	0	0	0	0	0	0	0	187555	218813	0
1651053512023	-20.008	-10.248	1025.776	0.42	-0.21	0.28	285	223.5	-814.5	0	0	0	0	0	0	0	0	0	0	0	0	0	0	0	0	0	0	187561	218804	0
1651053512033	-29.28	-5.368	1019.92	0.28	-0.28	0.42	282	225	-816	0	0	0	0	0	0	0	0	0	0	0	0	0	0	0	0	0	0	187560	218831	0
1651053512043	-30.744	-15.128	1020.408	0.28	-0.21	0.35	282	226.5	-813	0	0	0	0	0	0	0	0	0	0	0	0	0	0	0	0	0	0	187570	218841	0
1651053512053	-38.552	31.232	1023.824	0.42	-0.28	0.56	285	226.5	-811.5	0	0	0	0	0	0	0	0	0	0	0	0	0	0	0	0	0	0	187588	218870	0
1651053512063	-33.672	-2.928	1021.872	0.35	-0.28	0.42	283.5	228	-813	0	0	0	0	0	0	0	0	0	0	0	0	0	0	0	0	0	0	187596	218888	0
1651053512073	-28.792	6.832	1021.384	0.56	-0.21	0.28	282	232.5	-816	0	0	0	0	0	0	0	0	0	0	0	0	0	0	0	0	0	0	187590	218892	0
1651053512083	-19.52	11.224	1022.848	0.28	-0.35	0.42	286.5	234	-813	0	0	0	0	0	0	0	0	0	0	0	0	0	0	0	0	0	0	187600	218877	0
1651053512093	-15.616	-1.952	1026.752	0.28	-0.21	0.21	283.5	231	-813	0	0	0	0	0	0	0	0	0	0	0	0	0	0	0	0	0	0	187578	218850	0
1651053512103	-23.424	-1.464	1024.312	0.35	-0.21	0.28	279	226.5	-813	0	0	0	0	0	0	0	0	0	0	0	0	0	0	0	0	0	0	187564	218828	0
1651053512113	-28.304	-11.712	1018.944	0.49	-0.21	0.42	279	228	-819	0	0	0	0	0	0	0	0	0	0	0	0	0	0	0	0	0	0	187546	218827	0
1651053512123	-30.744	2.44	1022.36	0.42	-0.21	0.49	277.5	228	-816	0	0	0	0	0	0	0	0	0	0	0	0	0	0	0	0	0	0	187553	218812	0
1651053512133	-36.6	-18.544	1018.944	0.35	-0.28	0.35	276	231	-816	0	0	0	0	0	0	0	0	0	0	0	0	0	0	0	0	0	0	187554	218794	0
1651053512143	-28.792	8.784	1020.408	0.21	-0.28	0.49	279	229.5	-816	0	0	0	0	0	0	0	0	0	0	0	0	0	0	0	0	0	0	187532	218766	0
1651053512153	-28.304	12.2	1016.992	0.35	-0.21	0.42	280.5	228	-816	0	0	0	0	0	0	0	0	0	0	0	0	0	0	0	0	0	0	187528	218752	0
1651053512163	-33.184	0.976	1025.776	0.21	-0.21	0.35	280.5	225	-817.5	0	0	0	0	0	0	0	0	0	0	0	0	0	0	0	0	0	0	187524	218725	0
1651053512173	-16.104	3.416	1018.944	0.42	-0.28	0.28	282	223.5	-813	0	0	0	0	0	0	0	0	0	0	0	0	0	0	0	0	0	0	187510	218701	0
1651053512183	-31.232	4.88	1015.528	0.35	-0.21	0.28	282	228	-814.5	0	0	0	0	0	0	0	0	0	0	0	0	0	0	0	0	0	0	187494	218695	0
1651053512193	-25.376	-1.464	1022.848	0.35	-0.28	0.28	280.5	232.5	-819	0	0	0	0	0	0	0	0	0	0	0	0	0	0	0	0	0	0	187488	218660	0
1651053512203	-25.864	-3.416	1021.872	0.28	-0.21	0.21	279	228	-813	0	0	0	0	0	0	0	0	0	0	0	0	0	0	0	0	0	0	187471	218655	0
1651053512213	-25.864	1.464	1016.504	0.35	-0.21	0.42	280.5	223.5	-810	0	0	0	0	0	0	0	0	0	0	0	0	0	0	0	0	0	0	187449	218606	0
1651053512223	-20.984	1.464	1017.48	0.35	-0.14	0.42	283.5	223.5	-813	0	0	0	0	0	0	0	0	0	0	0	0	0	0	0	0	0	0	187411	218553	0
1651053512233	-31.232	0.976	1020.408	0.28	-0.28	0.42	279	223.5	-811.5	0	0	0	0	0	0	0	0	0	0	0	0	0	0	0	0	0	0	187463	218624	0
1651053512243	-24.888	4.392	1023.336	0.49	-0.28	0.49	276	225	-810	0	0	0	0	0	0	0	0	0	0	0	0	0	0	0	0	0	0	187479	218681	0
1651053512253	-34.16	6.832	1017.968	0.28	-0.21	0.35	282	222	-811.5	0	0	0	0	0	0	0	0	0	0	0	0	0	0	0	0	0	0	187474	218674	0
1651053512263	-31.72	9.272	1019.432	0.42	-0.21	0.28	283.5	223.5	-816	0	0	0	0	0	0	0	0	0	0	0	0	0	0	0	0	0	0	187441	218600	0
1651053512273	-32.208	-2.44	1022.36	0.35	-0.21	0.28	283.5	231	-819	0	0	0	0	0	0	0	0	0	0	0	0	0	0	0	0	0	0	187382	218474	0
1651053512283	-28.304	-8.784	1015.04	0.35	-0.21	0.28	282	231	-814.5	0	0	0	0	0	0	0	0	0	0	0	0	0	0	0	0	0	0	187350	218411	0
1651053512293	-19.52	-2.44	1022.36	0.35	-0.28	0.21	285	229.5	-813	0	0	0	0	0	0	0	0	0	0	0	0	0	0	0	0	0	0	187335	218375	0
1651053512303	-23.424	-5.368	1024.312	0.42	-0.14	0.35	279	228	-811.5	0	0	0	0	0	0	0	0	0	0	0	0	0	0	0	0	0	0	187330	218383	0
1651053512313	-15.616	-2.928	1022.36	0.35	-0.28	0.35	277.5	225	-813	0	0	0	0	0	0	0	0	0	0	0	0	0	0	0	0	0	0	187331	218378	0
1651053512323	-25.864	2.928	1023.824	0.42	-0.21	0.42	277.5	225	-819	0	0	0	0	0	0	0	0	0	0	0	0	0	0	0	0	0	0	187321	218336	0
1651053512333	-24.888	0	1022.848	0.21	-0.28	0.35	276	226.5	-816	0	0	0	0	0	0	0	0	0	0	0	0	0	0	0	0	0	0	187307	218314	0
1651053512343	-24.888	6.832	1020.896	0.56	-0.14	0.35	283.5	231	-817.5	0	0	0	0	0	0	0	0	0	0	0	0	0	0	0	0	0	0	187288	218265	0
1651053512353	-22.448	2.44	1016.504	0.42	-0.14	0.42	280.5	231	-817.5	0	0	0	0	0	0	0	0	0	0	0	0	0	0	0	0	0	0	187256	218250	0
1651053512363	-25.376	-0.488	1015.528	0.56	0	0.35	280.5	226.5	-813	0	0	0	0	0	0	0	0	0	0	0	0	0	0	0	0	0	0	187266	218252	0
1651053512373	-32.696	1.464	1024.8	0.42	-0.21	0.35	285	222	-807	0	0	0	0	0	0	0	0	0	0	0	0	0	0	0	0	0	0	187277	218264	0
1651053512383	-25.864	5.368	1023.336	0.28	-0.28	0.28	282	225	-811.5	0	0	0	0	0	0	0	0	0	0	0	0	0	0	0	0	0	0	187275	218242	0
1651053512393	-27.816	-7.808	1025.776	0.35	-0.28	0.42	280.5	231	-813	0	0	0	0	0	0	0	0	0	0	0	0	0	0	0	0	0	0	187249	218232	0
1651053512403	-28.304	-6.344	1021.872	0.42	-0.28	0.35	277.5	231	-810	0	0	0	0	0	0	0	0	0	0	0	0	0	0	0	0	0	0	187220	218176	0
1651053512413	-27.328	6.832	1023.824	0.35	-0.28	0.42	279	226.5	-814.5	0	0	0	0	0	0	0	0	0	0	0	0	0	0	0	0	0	0	187193	218119	0
1651053512424	-26.352	1.952	1028.216	0.28	-0.35	0.35	283.5	228	-811.5	0	0	0	0	0	0	0	0	0	0	0	0	0	0	0	0	0	0	187169	218061	0
1651053512434	-17.568	3.904	1016.992	0.49	-0.07	0.49	282	225	-811.5	0	0	0	0	0	0	0	0	0	0	0	0	0	0	0	0	0	0	187138	218034	0
1651053512444	-26.352	8.296	1020.896	0.28	-0.28	0.42	280.5	220.5	-816	0	0	0	0	0	0	0	0	0	0	0	0	0	0	0	0	0	0	187146	218032	0
1651053512454	-41.48	-0.976	1025.288	0.35	-0.28	0.28	285	225	-817.5	0	0	0	0	0	0	0	0	0	0	0	0	0	0	0	0	0	0	187133	218032	0
1651053512464	-32.208	-3.416	1021.384	0.35	-0.21	0.42	286.5	228	-816	0	0	0	0	0	0	0	0	0	0	0	0	0	0	0	0	0	0	187122	218012	0
1651053512474	-28.792	-2.44	1021.872	0.42	-0.21	0.28	283.5	228	-814.5	0	0	0	0	0	0	0	0	0	0	0	0	0	0	0	0	0	0	187101	217946	0
1651053512484	-19.032	1.952	1018.456	0.35	-0.28	0.42	282	229.5	-813	0	0	0	0	0	0	0	0	0	0	0	0	0	0	0	0	0	0	187067	217884	0
1651053512494	-17.568	-2.44	1017.968	0.42	-0.14	0.42	282	231	-811.5	0	0	0	0	0	0	0	0	0	0	0	0	0	0	0	0	0	0	187021	217834	0
1651053512504	-19.032	2.928	1023.824	0.42	-0.28	0.42	283.5	232.5	-810	0	0	0	0	0	0	0	0	0	0	0	0	0	0	0	0	0	0	186995	217799	0
1651053512514	-25.376	-0.976	1020.896	0.42	-0.14	0.35	282	228	-811.5	0	0	0	0	0	0	0	0	0	0	0	0	0	0	0	0	0	0	186956	217756	0
1651053512524	-23.424	0.976	1021.384	0.21	-0.28	0.35	274.5	228	-813	0	0	0	0	0	0	0	0	0	0	0	0	0	0	0	0	0	0	186930	217696	0
1651053512534	-21.472	2.928	1022.848	0.49	-0.28	0.35	274.5	228	-811.5	0	0	0	0	0	0	0	0	0	0	0	0	0	0	0	0	0	0	186888	217628	0
1651053512544	-29.768	7.32	1018.456	0.28	-0.35	0.35	280.5	220.5	-813	0	0	0	0	0	0	0	0	0	0	0	0	0	0	0	0	0	0	186858	217576	0
1651053512554	-20.984	-3.416	1019.432	0.28	-0.28	0.35	282	222	-816	0	0	0	0	0	0	0	0	0	0	0	0	0	0	0	0	0	0	186814	217497	0
1651053512564	-16.592	1.464	1020.408	0.35	-0.35	0.42	283.5	223.5	-814.5	0	0	0	0	0	0	0	0	0	0	0	0	0	0	0	0	0	0	186777	217450	0
1651053512574	-21.96	-4.392	1024.8	0.42	-0.28	0.42	283.5	216	-814.5	0	0	0	0	0	0	0	0	0	0	0	0	0	0	0	0	0	0	186754	217397	0
1651053512584	-24.4	-5.856	1022.848	0.35	-0.28	0.28	277.5	220.5	-817.5	0	0	0	0	0	0	0	0	0	0	0	0	0	0	0	0	0	0	186731	217359	0
1651053512594	-29.28	-0.976	1019.432	0.35	-0.28	0.42	282	231	-817.5	0	0	0	0	0	0	0	0	0	0	0	0	0	0	0	0	0	0	186715	217339	0
1651053512604	-31.72	3.416	1017.48	0.35	-0.35	0.49	286.5	229.5	-816	0	0	0	0	0	0	0	0	0	0	0	0	0	0	0	0	0	0	186711	217362	0
1651053512614	-27.816	-0.976	1016.504	0.28	-0.28	0.42	283.5	226.5	-819	0	0	0	0	0	0	0	0	0	0	0	0	0	0	0	0	0	0	186710	217348	0
1651053512624	-25.376	3.904	1021.872	0.42	-0.28	0.35	282	223.5	-817.5	0	0	0	0	0	0	0	0	0	0	0	0	0	0	0	0	0	0	186670	217330	0
1651053512634	-30.256	-0.488	1024.312	0.35	-0.35	0.35	283.5	226.5	-816	0	0	0	0	0	0	0	0	0	0	0	0	0	0	0	0	0	0	186671	217305	0
1651053512644	-20.496	-3.416	1020.896	0.28	-0.21	0.35	282	226.5	-808.5	0	0	0	0	0	0	0	0	0	0	0	0	0	0	0	0	0	0	186639	217300	0
1651053512654	-26.84	4.392	1017.48	0.35	-0.28	0.35	283.5	225	-805.5	0	0	0	0	0	0	0	0	0	0	0	0	0	0	0	0	0	0	186639	217300	0
1651053512664	-23.912	-0.976	1021.872	0.42	-0.35	0.35	286.5	228	-814.5	0	0	0	0	0	0	0	0	0	0	0	0	0	0	0	0	0	0	186637	217259	0
1651053512674	-30.256	0.976	1020.408	0.42	-0.21	0.42	282	229.5	-817.5	0	0	0	0	0	0	0	0	0	0	0	0	0	0	0	0	0	0	186603	217228	0
1651053512684	-22.936	-7.808	1019.92	0.35	-0.35	0.42	279	228	-816	0	0	0	0	0	0	0	0	0	0	0	0	0	0	0	0	0	0	186571	217171	0
1651053512694	-24.4	-3.416	1015.528	0.28	-0.35	0.42	282	223.5	-817.5	0	0	0	0	0	0	0	0	0	0	0	0	0	0	0	0	0	0	186534	217115	0
1651053512704	-24.888	-0.976	1019.92	0.49	-0.21	0.35	285	226.5	-817.5	0	0	0	0	0	0	0	0	0	0	0	0	0	0	0	0	0	0	186518	217100	0
1651053512714	-32.696	-4.88	1029.68	0.35	-0.21	0.35	277.5	225	-816	0	0	0	0	0	0	0	0	0	0	0	0	0	0	0	0	0	0	186491	217035	0
1651053512724	-22.448	6.832	1024.8	0.42	-0.28	0.42	277.5	225	-816	0	0	0	0	0	0	0	0	0	0	0	0	0	0	0	0	0	0	186473	217015	0
1651053512734	-24.4	4.88	1021.384	0.35	-0.21	0.42	274.5	225	-816	0	0	0	0	0	0	0	0	0	0	0	0	0	0	0	0	0	0	186452	216980	0
1651053512744	-29.28	-0.976	1021.872	0.35	-0.14	0.21	274.5	226.5	-811.5	0	0	0	0	0	0	0	0	0	0	0	0	0	0	0	0	0	0	186421	216933	0
1651053512754	-28.304	0.976	1020.408	0.35	-0.28	0.35	279	229.5	-810	0	0	0	0	0	0	0	0	0	0	0	0	0	0	0	0	0	0	186424	216926	0
1651053512764	-26.84	5.856	1016.016	0.35	-0.21	0.28	280.5	226.5	-810	0	0	0	0	0	0	0	0	0	0	0	0	0	0	0	0	0	0	186422	216917	0
1651053512774	-24.4	-0.488	1023.336	0.42	-0.14	0.35	280.5	225	-813	0	0	0	0	0	0	0	0	0	0	0	0	0	0	0	0	0	0	186418	216926	0
1651053512784	-23.424	1.464	1023.824	0.28	-0.21	0.35	283.5	229.5	-811.5	0	0	0	0	0	0	0	0	0	0	0	0	0	0	0	0	0	0	186434	216954	0
1651053512794	-29.28	2.928	1021.872	0.21	-0.35	0.42	280.5	228	-807	0	0	0	0	0	0	0	0	0	0	0	0	0	0	0	0	0	0	186445	217007	0
1651053512804	-30.256	0.976	1023.824	0.56	-0.07	0.42	283.5	226.5	-811.5	0	0	0	0	0	0	0	0	0	0	0	0	0	0	0	0	0	0	186469	217052	0
1651053512814	-21.96	3.416	1020.408	0.21	-0.14	0.35	285	225	-810	0	0	0	0	0	0	0	0	0	0	0	0	0	0	0	0	0	0	186486	217116	0
1651053512824	-26.84	8.296	1021.872	0.35	-0.21	0.35	282	226.5	-811.5	0	0	0	0	0	0	0	0	0	0	0	0	0	0	0	0	0	0	186501	217149	0
1651053512834	-23.424	4.88	1017.968	0.35	-0.07	0.35	279	226.5	-816	0	0	0	0	0	0	0	0	0	0	0	0	0	0	0	0	0	0	186508	217155	0
1651053512844	-28.304	-1.464	1019.92	0.35	-0.28	0.35	280.5	225	-819	0	0	0	0	0	0	0	0	0	0	0	0	0	0	0	0	0	0	186501	217178	0
1651053512854	-19.52	2.928	1020.408	0.35	-0.28	0.42	280.5	228	-816	0	0	0	0	0	0	0	0	0	0	0	0	0	0	0	0	0	0	186517	217192	0
1651053512864	-24.4	1.952	1016.016	0.42	-0.28	0.42	283.5	231	-814.5	0	0	0	0	0	0	0	0	0	0	0	0	0	0	0	0	0	0	186506	217192	0
1651053512874	-32.696	-3.904	1022.848	0.35	-0.21	0.42	277.5	223.5	-807	0	0	0	0	0	0	0	0	0	0	0	0	0	0	0	0	0	0	186519	217188	0
1651053512884	-26.84	1.952	1022.848	0.42	-0.21	0.35	280.5	226.5	-811.5	0	0	0	0	0	0	0	0	0	0	0	0	0	0	0	0	0	0	186506	217177	0
1651053512894	-28.304	4.392	1015.04	0.21	-0.28	0.42	286.5	231	-819	0	0	0	0	0	0	0	0	0	0	0	0	0	0	0	0	0	0	186508	217203	0
1651053512904	-26.352	5.368	1016.504	0.35	-0.21	0.35	285	223.5	-817.5	0	0	0	0	0	0	0	0	0	0	0	0	0	0	0	0	0	0	186504	217207	0
1651053512914	-29.768	3.416	1017.968	0.28	-0.28	0.42	283.5	223.5	-811.5	0	0	0	0	0	0	0	0	0	0	0	0	0	0	0	0	0	0	186504	217193	0
1651053512924	-27.328	3.416	1025.288	0.42	-0.21	0.42	283.5	226.5	-811.5	0	0	0	0	0	0	0	0	0	0	0	0	0	0	0	0	0	0	186498	217197	0
1651053512934	-21.96	0.976	1022.848	0.28	-0.21	0.42	283.5	228	-813	0	0	0	0	0	0	0	0	0	0	0	0	0	0	0	0	0	0	186509	217238	0
1651053512944	-17.08	0	1023.824	0.35	-0.21	0.42	277.5	228	-814.5	0	0	0	0	0	0	0	0	0	0	0	0	0	0	0	0	0	0	186517	217249	0
1651053512954	-22.936	-2.44	1018.944	0.28	-0.35	0.35	276	231	-810	0	0	0	0	0	0	0	0	0	0	0	0	0	0	0	0	0	0	186522	217254	0
1651053512964	-28.792	-2.44	1018.944	0.35	-0.28	0.35	282	229.5	-810	0	0	0	0	0	0	0	0	0	0	0	0	0	0	0	0	0	0	186521	217254	0
1651053512974	-26.352	5.368	1024.8	0.49	-0.21	0.42	283.5	222	-810	0	0	0	0	0	0	0	0	0	0	0	0	0	0	0	0	0	0	186521	217238	0
1651053512984	-26.352	5.856	1021.872	0.35	-0.14	0.35	283.5	225	-805.5	0	0	0	0	0	0	0	0	0	0	0	0	0	0	0	0	0	0	186523	217251	0
1651053512994	-35.136	4.88	1024.312	0.35	-0.21	0.42	282	229.5	-811.5	0	0	0	0	0	0	0	0	0	0	0	0	0	0	0	0	0	0	186510	217245	0
1651053513004	-24.4	-0.976	1022.848	0.35	-0.21	0.42	279	225	-814.5	0	0	0	0	0	0	0	0	0	0	0	0	0	0	0	0	0	0	186500	217220	0
1651053513014	-18.056	-3.904	1026.264	0.28	-0.28	0.35	282	225	-813	0	0	0	0	0	0	0	0	0	0	0	0	0	0	0	0	0	0	186498	217222	0
1651053513024	-22.936	2.928	1026.264	0.42	-0.28	0.42	283.5	232.5	-813	0	0	0	0	0	0	0	0	0	0	0	0	0	0	0	0	0	0	186496	217218	0
1651053513034	-22.936	0.976	1017.968	0.35	-0.21	0.35	279	228	-810	0	0	0	0	0	0	0	0	0	0	0	0	0	0	0	0	0	0	186509	217224	0
1651053513044	-21.472	-0.976	1020.408	0.42	-0.28	0.35	283.5	223.5	-816	0	0	0	0	0	0	0	0	0	0	0	0	0	0	0	0	0	0	186496	217228	0
1651053513054	-25.864	3.904	1022.36	0.28	-0.28	0.42	286.5	226.5	-819	0	0	0	0	0	0	0	0	0	0	0	0	0	0	0	0	0	0	186491	217227	0
1651053513064	-29.768	1.952	1016.992	0.28	-0.35	0.42	286.5	228	-816	0	0	0	0	0	0	0	0	0	0	0	0	0	0	0	0	0	0	186487	217234	0
1651053513074	-26.84	5.856	1024.8	0.42	-0.28	0.35	282	223.5	-813	0	0	0	0	0	0	0	0	0	0	0	0	0	0	0	0	0	0	186481	217234	0
1651053513084	-30.744	6.344	1022.848	0.35	-0.21	0.42	283.5	226.5	-819	0	0	0	0	0	0	0	0	0	0	0	0	0	0	0	0	0	0	186483	217216	0
1651053513094	-21.96	-2.44	1017.968	0.35	-0.28	0.35	280.5	228	-820.5	0	0	0	0	0	0	0	0	0	0	0	0	0	0	0	0	0	0	186476	217208	0
1651053513104	-26.352	2.44	1016.504	0.42	-0.21	0.42	277.5	226.5	-814.5	0	0	0	0	0	0	0	0	0	0	0	0	0	0	0	0	0	0	186468	217177	0
1651053513114	-25.376	-3.416	1023.824	0.42	-0.28	0.35	279	223.5	-813	0	0	0	0	0	0	0	0	0	0	0	0	0	0	0	0	0	0	186444	217160	0
1651053513124	-26.84	5.368	1019.432	0.35	-0.21	0.35	280.5	223.5	-814.5	0	0	0	0	0	0	0	0	0	0	0	0	0	0	0	0	0	0	186438	217151	0
1651053513134	-26.84	-0.488	1017.968	0.35	-0.21	0.42	280.5	228	-813	0	0	0	0	0	0	0	0	0	0	0	0	0	0	0	0	0	0	186412	217135	0
1651053513144	-20.984	1.952	1015.528	0.42	-0.35	0.42	285	229.5	-813	0	0	0	0	0	0	0	0	0	0	0	0	0	0	0	0	0	0	186411	217126	0
1651053513154	-21.472	0.976	1016.504	0.35	-0.21	0.42	289.5	226.5	-810	0	0	0	0	0	0	0	0	0	0	0	0	0	0	0	0	0	0	186406	217113	0
1651053513164	15.616	-5.856	1008.696	0.07	-0.56	0.42	288	228	-813	0	0	0	0	0	0	0	0	0	0	0	0	0	0	0	0	0	0	186400	217099	0
1651053513174	-2.928	1.952	1012.112	0.77	-0.42	0.35	283.5	231	-814.5	0	0	0	0	0	0	0	0	0	0	0	0	0	0	0	0	0	0	186406	217090	0
1651053513184	-10.736	6.344	1018.944	0.35	-0.35	0.42	283.5	229.5	-813	0	0	0	0	0	0	0	0	0	0	0	0	0	0	0	0	0	0	186381	217069	0
1651053513194	11.224	-17.568	1009.672	0.35	-0.35	0.49	280.5	229.5	-817.5	0	0	0	0	0	0	0	0	0	0	0	0	0	0	0	0	0	0	186382	217074	0
1651053513204	-34.648	19.032	1016.016	0.49	-0.21	0.49	282	228	-816	0	0	0	0	0	0	0	0	0	0	0	0	0	0	0	0	0	0	186359	217066	0
1651053513214	-38.064	3.416	1019.92	0.28	-0.28	0.42	282	222	-811.5	0	0	0	0	0	0	0	0	0	0	0	0	0	0	0	0	0	0	186348	217049	0
1651053513224	-34.16	8.296	1024.312	0.14	-0.28	0.42	279	223.5	-811.5	0	0	0	0	0	0	0	0	0	0	0	0	0	0	0	0	0	0	186350	217041	0
1651053513234	-36.6	9.76	1027.728	0.28	-0.28	0.42	285	226.5	-811.5	0	0	0	0	0	0	0	0	0	0	0	0	0	0	0	0	0	0	186340	217034	0
1651053513244	-27.328	3.416	1016.504	0.35	-0.35	0.42	280.5	229.5	-811.5	0	0	0	0	0	0	0	0	0	0	0	0	0	0	0	0	0	0	186344	217026	0
1651053513254	-23.912	3.416	1020.408	0.35	-0.35	0.35	280.5	229.5	-816	0	0	0	0	0	0	0	0	0	0	0	0	0	0	0	0	0	0	186331	217024	0
1651053513265	-20.984	-1.464	1020.408	0.28	-0.35	0.35	283.5	229.5	-811.5	0	0	0	0	0	0	0	0	0	0	0	0	0	0	0	0	0	0	186325	217015	0
1651053513275	-14.64	4.88	1019.92	0.28	-0.28	0.35	279	228	-813	0	0	0	0	0	0	0	0	0	0	0	0	0	0	0	0	0	0	186321	217033	0
1651053513285	-13.664	-22.936	1008.696	-0.49	-3.71	0.35	276	225	-819	0	0	0	0	0	0	0	0	0	0	0	0	0	0	0	0	0	0	186355	217069	0
1651053513295	-40.992	60.024	991.616	1.33	-2.1	0.84	282	228	-819	0	0	0	0	0	0	0	0	0	0	0	0	0	0	0	0	0	0	186365	217116	0
1651053513305	-77.104	11.712	1019.92	0.42	1.05	0.14	277.5	231	-814.5	0	0	0	0	0	0	0	0	0	0	0	0	0	0	0	0	0	0	186389	217174	0
1651053513315	-22.936	-13.664	1000.4	0.28	0.14	0.42	282	235.5	-811.5	0	0	0	0	0	0	0	0	0	0	0	0	0	0	0	0	0	0	186400	217205	0
1651053513325	-2.928	-25.864	1018.944	0	-0.35	0.35	283.5	228	-814.5	0	0	0	0	0	0	0	0	0	0	0	0	0	0	0	0	0	0	186421	217243	0
1651053513335	-24.888	-1.464	1016.504	0.77	0	0.28	274.5	225	-817.5	0	0	0	0	0	0	0	0	0	0	0	0	0	0	0	0	0	0	186430	217273	0
1651053513345	-4.88	-7.808	1025.776	0.56	-0.56	0.42	277.5	222	-814.5	0	0	0	0	0	0	0	0	0	0	0	0	0	0	0	0	0	0	186462	217314	0
1651053513355	-9.76	-6.832	1021.872	-0.07	-0.56	0.21	280.5	222	-816	0	0	0	0	0	0	0	0	0	0	0	0	0	0	0	0	0	0	186470	217345	0
1651053513365	-14.64	-1.952	1018.456	0.56	-0.35	0.56	279	225	-817.5	0	0	0	0	0	0	0	0	0	0	0	0	0	0	0	0	0	0	186488	217397	0
1651053513375	-28.792	-0.488	1024.8	0.21	-0.21	0.35	283.5	226.5	-816	0	0	0	0	0	0	0	0	0	0	0	0	0	0	0	0	0	0	186519	217445	0
1651053513385	-19.032	-2.44	1022.36	0.14	-0.35	0.42	277.5	229.5	-810	0	0	0	0	0	0	0	0	0	0	0	0	0	0	0	0	0	0	186539	217486	0
1651053513395	-28.792	-0.976	1021.872	0.42	-0.28	0.28	277.5	226.5	-810	0	0	0	0	0	0	0	0	0	0	0	0	0	0	0	0	0	0	186576	217511	0
1651053513405	-34.16	-0.976	1021.872	0.49	-0.14	0.35	286.5	223.5	-811.5	0	0	0	0	0	0	0	0	0	0	0	0	0	0	0	0	0	0	186585	217536	0
1651053513415	-34.16	3.416	1020.896	0.35	-0.21	0.42	282	223.5	-811.5	0	0	0	0	0	0	0	0	0	0	0	0	0	0	0	0	0	0	186597	217547	0
1651053513425	-20.984	6.832	1020.896	0.28	-0.35	0.49	282	226.5	-810	0	0	0	0	0	0	0	0	0	0	0	0	0	0	0	0	0	0	186593	217528	0
1651053513435	-28.304	4.88	1022.36	0.42	-0.28	0.42	283.5	231	-814.5	0	0	0	0	0	0	0	0	0	0	0	0	0	0	0	0	0	0	186597	217513	0
1651053513445	-28.792	-1.952	1020.408	0.42	-0.21	0.35	283.5	231	-816	0	0	0	0	0	0	0	0	0	0	0	0	0	0	0	0	0	0	186594	217487	0
1651053513455	-27.816	5.856	1023.336	0.35	-0.28	0.28	283.5	226.5	-814.5	0	0	0	0	0	0	0	0	0	0	0	0	0	0	0	0	0	0	186594	217487	0
1651053513465	-29.28	1.464	1019.432	0.49	-0.21	0.35	277.5	226.5	-817.5	0	0	0	0	0	0	0	0	0	0	0	0	0	0	0	0	0	0	186597	217475	0
1651053513475	-28.304	-0.976	1020.408	0.28	-0.28	0.35	279	228	-817.5	0	0	0	0	0	0	0	0	0	0	0	0	0	0	0	0	0	0	186578	217437	0
1651053513485	-30.256	2.44	1021.384	0.35	-0.21	0.28	279	223.5	-816	0	0	0	0	0	0	0	0	0	0	0	0	0	0	0	0	0	0	186579	217400	0
1651053513495	-26.352	-3.904	1022.36	0.42	-0.28	0.42	277.5	228	-814.5	0	0	0	0	0	0	0	0	0	0	0	0	0	0	0	0	0	0	186559	217367	0
1651053513505	-29.28	-2.44	1020.408	0.28	-0.21	0.42	280.5	229.5	-817.5	0	0	0	0	0	0	0	0	0	0	0	0	0	0	0	0	0	0	186552	217350	0
1651053513515	-18.056	1.464	1021.872	0.42	-0.28	0.42	277.5	225	-816	0	0	0	0	0	0	0	0	0	0	0	0	0	0	0	0	0	0	186537	217329	0
1651053513525	-25.376	4.392	1026.752	0.35	-0.35	0.35	276	223.5	-811.5	0	0	0	0	0	0	0	0	0	0	0	0	0	0	0	0	0	0	186528	217300	0
1651053513535	-29.768	3.904	1021.872	0.35	-0.28	0.35	277.5	222	-810	0	0	0	0	0	0	0	0	0	0	0	0	0	0	0	0	0	0	186524	217265	0
1651053513545	-25.864	0.976	1025.776	0.42	-0.21	0.35	285	226.5	-811.5	0	0	0	0	0	0	0	0	0	0	0	0	0	0	0	0	0	0	186513	217261	0
1651053513555	-21.472	-1.952	1026.264	0.35	-0.35	0.35	282	226.5	-811.5	0	0	0	0	0	0	0	0	0	0	0	0	0	0	0	0	0	0	186516	217250	0
1651053513565	-36.112	-6.344	1021.384	0.35	-0.21	0.42	277.5	223.5	-816	0	0	0	0	0	0	0	0	0	0	0	0	0	0	0	0	0	0	186499	217246	0
1651053513575	-26.84	-2.44	1021.872	0.42	-0.14	0.35	280.5	225	-814.5	0	0	0	0	0	0	0	0	0	0	0	0	0	0	0	0	0	0	186481	217239	0
1651053513585	-26.84	0	1022.36	0.35	-0.14	0.35	285	225	-814.5	0	0	0	0	0	0	0	0	0	0	0	0	0	0	0	0	0	0	186472	217242	0
1651053513595	-33.672	3.904	1018.944	0.35	-0.28	0.35	283.5	225	-816	0	0	0	0	0	0	0	0	0	0	0	0	0	0	0	0	0	0	186487	217253	0
1651053513605	-22.936	1.464	1012.6	0.42	-0.28	0.35	282	229.5	-817.5	0	0	0	0	0	0	0	0	0	0	0	0	0	0	0	0	0	0	186506	217287	0
1651053513615	-29.768	-1.464	1022.848	0.42	-0.28	0.49	279	228	-814.5	0	0	0	0	0	0	0	0	0	0	0	0	0	0	0	0	0	0	186527	217340	0
1651053513625	-24.888	9.76	1022.36	0.35	-0.28	0.49	277.5	223.5	-808.5	0	0	0	0	0	0	0	0	0	0	0	0	0	0	0	0	0	0	186549	217402	0
1651053513635	-21.96	2.44	1020.408	0.35	-0.21	0.35	282	225	-810	0	0	0	0	0	0	0	0	0	0	0	0	0	0	0	0	0	0	186585	217486	0
1651053513645	-26.352	-2.44	1019.432	0.21	-0.21	0.35	282	223.5	-814.5	0	0	0	0	0	0	0	0	0	0	0	0	0	0	0	0	0	0	186609	217579	0
1651053513655	-22.448	-2.928	1021.872	0.42	-0.21	0.35	277.5	225	-817.5	0	0	0	0	0	0	0	0	0	0	0	0	0	0	0	0	0	0	186660	217666	0
1651053513665	-28.304	-0.488	1017.968	0.28	-0.21	0.28	280.5	229.5	-817.5	0	0	0	0	0	0	0	0	0	0	0	0	0	0	0	0	0	0	186687	217725	0
1651053513675	-20.984	2.44	1021.384	0.42	-0.28	0.42	280.5	225	-813	0	0	0	0	0	0	0	0	0	0	0	0	0	0	0	0	0	0	186706	217754	0
1651053513685	-23.424	-1.952	1023.824	0.28	-0.28	0.28	280.5	237	-813	0	0	0	0	0	0	0	0	0	0	0	0	0	0	0	0	0	0	186713	217776	0
1651053513695	-28.792	5.368	1020.408	0.42	-0.28	0.35	280.5	237	-816	0	0	0	0	0	0	0	0	0	0	0	0	0	0	0	0	0	0	186710	217789	0
1651053513705	-24.4	-1.952	1021.384	0.35	-0.28	0.35	276	228	-816	0	0	0	0	0	0	0	0	0	0	0	0	0	0	0	0	0	0	186732	217795	0
1651053513715	-30.256	-4.392	1017.48	0.42	-0.21	0.35	276	229.5	-808.5	0	0	0	0	0	0	0	0	0	0	0	0	0	0	0	0	0	0	186743	217789	0
1651053513725	-24.4	6.344	1023.336	0.28	-0.28	0.35	277.5	231	-814.5	0	0	0	0	0	0	0	0	0	0	0	0	0	0	0	0	0	0	186758	217823	0
1651053513735	-23.912	4.88	1017.48	0.42	-0.35	0.49	280.5	229.5	-817.5	0	0	0	0	0	0	0	0	0	0	0	0	0	0	0	0	0	0	186765	217861	0
1651053513745	-23.424	1.952	1018.944	0.42	-0.28	0.35	282	235.5	-822	0	0	0	0	0	0	0	0	0	0	0	0	0	0	0	0	0	0	186787	217904	0
1651053513755	-33.672	7.808	1020.896	0.28	-0.21	0.42	282	228	-817.5	0	0	0	0	0	0	0	0	0	0	0	0	0	0	0	0	0	0	186807	217927	0
1651053513765	-21.96	2.44	1018.944	0.35	-0.28	0.42	283.5	222	-813	0	0	0	0	0	0	0	0	0	0	0	0	0	0	0	0	0	0	186803	217921	0
1651053513775	-27.816	4.88	1018.944	0.28	-0.28	0.42	280.5	223.5	-814.5	0	0	0	0	0	0	0	0	0	0	0	0	0	0	0	0	0	0	186795	217921	0
1651053513785	-20.984	0.488	1019.432	0.42	-0.28	0.28	280.5	226.5	-814.5	0	0	0	0	0	0	0	0	0	0	0	0	0	0	0	0	0	0	186797	217921	0
1651053513795	-35.624	5.856	1016.016	0.42	-0.28	0.35	280.5	231	-816	0	0	0	0	0	0	0	0	0	0	0	0	0	0	0	0	0	0	186800	217948	0
1651053513805	-24.4	-6.832	1023.824	0.35	-0.21	0.42	279	234	-814.5	0	0	0	0	0	0	0	0	0	0	0	0	0	0	0	0	0	0	186818	217972	0
1651053513815	-23.424	2.928	1020.896	0.28	-0.21	0.42	276	234	-811.5	0	0	0	0	0	0	0	0	0	0	0	0	0	0	0	0	0	0	186814	217971	0
1651053513825	-25.864	2.928	1029.192	0.42	-0.21	0.35	277.5	231	-813	0	0	0	0	0	0	0	0	0	0	0	0	0	0	0	0	0	0	186802	217951	0
1651053513835	-30.744	4.392	1023.336	0.42	-0.28	0.42	280.5	226.5	-816	0	0	0	0	0	0	0	0	0	0	0	0	0	0	0	0	0	0	186783	217923	0
1651053513845	-20.984	7.808	1019.432	0.28	-0.28	0.35	277.5	229.5	-817.5	0	0	0	0	0	0	0	0	0	0	0	0	0	0	0	0	0	0	186764	217881	0
1651053513855	-19.032	1.952	1022.848	0.35	-0.28	0.42	274.5	231	-816	0	0	0	0	0	0	0	0	0	0	0	0	0	0	0	0	0	0	186750	217836	0
1651053513865	-24.888	2.44	1019.92	0.42	-0.35	0.42	276	226.5	-810	0	0	0	0	0	0	0	0	0	0	0	0	0	0	0	0	0	0	186743	217834	0
1651053513875	-29.28	0.488	1025.776	0.42	-0.14	0.35	285	229.5	-811.5	0	0	0	0	0	0	0	0	0	0	0	0	0	0	0	0	0	0	186739	217830	0
1651053513885	-27.328	-0.488	1026.264	0.35	-0.28	0.35	286.5	228	-817.5	0	0	0	0	0	0	0	0	0	0	0	0	0	0	0	0	0	0	186740	217813	0
1651053513895	-22.448	4.392	1024.312	0.42	-0.28	0.35	276	223.5	-817.5	0	0	0	0	0	0	0	0	0	0	0	0	0	0	0	0	0	0	186742	217826	0
1651053513905	-35.136	4.88	1020.896	0.49	-0.21	0.35	276	223.5	-814.5	0	0	0	0	0	0	0	0	0	0	0	0	0	0	0	0	0	0	186748	217832	0
1651053513915	-24.4	8.296	1029.192	0.35	0	1.4	285	223.5	-817.5	0	0	0	0	0	0	0	0	0	0	0	0	0	0	0	0	0	0	186754	217840	0
1651053513925	-27.328	2.928	1023.824	0.28	-0.14	0.42	283.5	225	-817.5	0	0	0	0	0	0	0	0	0	0	0	0	0	0	0	0	0	0	186763	217839	0
1651053513935	-23.912	-2.44	1022.848	0.42	-0.28	0.35	277.5	225	-816	0	0	0	0	0	0	0	0	0	0	0	0	0	0	0	0	0	0	186771	217864	0
