Device information:
Device Id: Mitch
Firmware Version: 1.1.0
Hardware Version: v2.0
Acquisition Information:
Mode:MODE IMU
Sampling frequency:100Hz
Axl FS:16 g     Gyro FS:2000 dps
Timestamp	Acc.X	Acc.Y	Acc.Z	Gyro.X	Gyro.Y	Gyro.Z	Magn.X	Magn.Y	Magn.Z	Distance.x	Distance.y	P.0	P.1	P.2	P.3	P.4	P.5	P.6	P.7	P.8	P.9	P.10	P.11	P.12	P.13	P.14	P.15	PPG_RED.	PPG_IR.	PPG_GREEN.
1651053504016	178.608	678.32	297.192	-4.48	0.42	0	-184.5	-457.5	-360	0	0	0	0	0	0	0	0	0	0	0	0	0	0	0	0	0	0	16870	793	0
1651053504026	-9.272	570.472	652.456	2.94	24.01	14.14	-397.5	-213	-538.5	0	0	0	0	0	0	0	0	0	0	0	0	0	0	0	0	0	0	851	781	0
1651053504036	117.12	661.728	618.296	34.09	36.05	27.37	-402	-211.5	-538.5	0	0	0	0	0	0	0	0	0	0	0	0	0	0	0	0	0	0	850	767	0
1651053504046	102.48	574.864	649.528	38.22	66.78	47.18	-402	-214.5	-540	0	0	0	0	0	0	0	0	0	0	0	0	0	0	0	0	0	0	858	776	0
1651053504056	85.888	593.896	652.944	25.55	61.67	58.94	-396	-214.5	-537	0	0	0	0	0	0	0	0	0	0	0	0	0	0	0	0	0	0	855	769	0
1651053504066	102.968	562.664	706.624	14.63	50.33	76.72	-393	-214.5	-540	0	0	0	0	0	0	0	0	0	0	0	0	0	0	0	0	0	0	853	780	0
1651053504076	133.224	564.616	763.72	5.18	41.72	98.14	-387	-217.5	-543	0	0	0	0	0	0	0	0	0	0	0	0	0	0	0	0	0	0	855	767	0
1651053504086	247.416	516.304	851.56	-4.06	36.05	128.73	-379.5	-217.5	-541.5	0	0	0	0	0	0	0	0	0	0	0	0	0	0	0	0	0	0	857	776	0
1651053504096	306.952	449.448	918.416	-7.77	39.9	145.04	-376.5	-223.5	-546	0	0	0	0	0	0	0	0	0	0	0	0	0	0	0	0	0	0	853	766	0
1651053504106	395.768	453.352	959.896	-7.84	42	159.53	-369	-229.5	-550.5	0	0	0	0	0	0	0	0	0	0	0	0	0	0	0	0	0	0	856	776	0
1651053504116	451.4	430.416	992.104	0	43.61	171.57	-351	-235.5	-555	0	0	0	0	0	0	0	0	0	0	0	0	0	0	0	0	0	0	853	779	0
1651053504126	536.8	419.68	995.032	5.11	51.17	176.82	-339	-244.5	-555	0	0	0	0	0	0	0	0	0	0	0	0	0	0	0	0	0	0	853	778	0
1651053504136	562.664	413.336	979.416	8.47	50.96	174.23	-333	-247.5	-559.5	0	0	0	0	0	0	0	0	0	0	0	0	0	0	0	0	0	0	856	771	0
1651053504146	555.832	369.416	926.224	10.64	46.06	171.22	-318	-256.5	-568.5	0	0	0	0	0	0	0	0	0	0	0	0	0	0	0	0	0	0	852	777	0
1651053504156	527.528	330.376	861.808	16.03	39.76	170.59	-309	-261	-570	0	0	0	0	0	0	0	0	0	0	0	0	0	0	0	0	0	0	852	771	0
1651053504166	479.704	262.056	794.464	23.59	36.19	172.69	-300	-261	-567	0	0	0	0	0	0	0	0	0	0	0	0	0	0	0	0	0	0	858	774	0
1651053504176	434.808	210.816	771.528	21.28	35.07	177.8	-285	-265.5	-570	0	0	0	0	0	0	0	0	0	0	0	0	0	0	0	0	0	0	849	772	0
1651053504186	428.952	183.488	798.856	3.64	33.11	189.56	-271.5	-265.5	-573	0	0	0	0	0	0	0	0	0	0	0	0	0	0	0	0	0	0	859	778	0
1651053504196	432.856	185.928	855.464	6.02	37.1	192.99	-259.5	-273	-574.5	0	0	0	0	0	0	0	0	0	0	0	0	0	0	0	0	0	0	856	769	0
1651053504206	459.696	140.544	923.784	7.42	39.9	198.1	-243	-283.5	-577.5	0	0	0	0	0	0	0	0	0	0	0	0	0	0	0	0	0	0	862	773	0
1651053504216	580.72	154.696	1006.744	7.28	38.64	200.62	-225	-283.5	-580.5	0	0	0	0	0	0	0	0	0	0	0	0	0	0	0	0	0	0	853	770	0
1651053504226	656.848	184.952	1059.448	-2.66	35.98	193.48	-214.5	-280.5	-583.5	0	0	0	0	0	0	0	0	0	0	0	0	0	0	0	0	0	0	868	774	0
1651053504236	539.728	45.384	1065.792	-7.7	27.09	171.5	-199.5	-288	-583.5	0	0	0	0	0	0	0	0	0	0	0	0	0	0	0	0	0	0	854	781	0
1651053504246	280.6	-42.456	1013.088	-4.83	23.17	183.47	-186	-295.5	-580.5	0	0	0	0	0	0	0	0	0	0	0	0	0	0	0	0	0	0	861	778	0
1651053504256	480.192	56.608	933.544	9.52	34.65	192.5	-175.5	-295.5	-588	0	0	0	0	0	0	0	0	0	0	0	0	0	0	0	0	0	0	856	780	0
1651053504266	483.12	13.176	906.216	21.84	45.92	182.98	-163.5	-295.5	-591	0	0	0	0	0	0	0	0	0	0	0	0	0	0	0	0	0	0	859	778	0
1651053504276	487.512	-17.08	880.352	28.07	57.61	172.06	-153	-298.5	-591	0	0	0	0	0	0	0	0	0	0	0	0	0	0	0	0	0	0	848	777	0
1651053504286	323.056	-6.344	762.256	22.75	101.5	156.17	-136.5	-297	-591	0	0	0	0	0	0	0	0	0	0	0	0	0	0	0	0	0	0	854	772	0
1651053504296	462.624	13.176	959.896	1.96	122.22	151.13	-126	-294	-600	0	0	0	0	0	0	0	0	0	0	0	0	0	0	0	0	0	0	854	772	0
1651053504306	518.744	-6.832	926.712	8.75	88.9	152.88	-111	-291	-610.5	0	0	0	0	0	0	0	0	0	0	0	0	0	0	0	0	0	0	847	773	0
1651053504316	411.384	-57.584	920.856	20.23	77.28	139.79	-97.5	-289.5	-616.5	0	0	0	0	0	0	0	0	0	0	0	0	0	0	0	0	0	0	853	775	0
1651053504326	454.328	-82.96	895.968	29.54	94.01	133.98	-84	-280.5	-618	0	0	0	0	0	0	0	0	0	0	0	0	0	0	0	0	0	0	852	773	0
1651053504336	356.728	-45.384	888.648	40.46	112.63	132.79	-79.5	-279	-627	0	0	0	0	0	0	0	0	0	0	0	0	0	0	0	0	0	0	854	773	0
1651053504346	316.712	-42.456	929.152	38.36	126	125.72	-73.5	-273	-636	0	0	0	0	0	0	0	0	0	0	0	0	0	0	0	0	0	0	856	779	0
1651053504356	323.544	-57.584	954.528	38.78	122.5	132.93	-66	-262.5	-643.5	0	0	0	0	0	0	0	0	0	0	0	0	0	0	0	0	0	0	858	775	0
1651053504366	316.224	-29.28	942.816	47.04	113.75	139.51	-52.5	-247.5	-645	0	0	0	0	0	0	0	0	0	0	0	0	0	0	0	0	0	0	849	773	0
1651053504376	315.736	-16.592	945.744	50.68	101.08	121.03	-52.5	-243	-654	0	0	0	0	0	0	0	0	0	0	0	0	0	0	0	0	0	0	854	782	0
1651053504386	331.84	-41.48	980.88	42.84	78.19	90.23	-46.5	-238.5	-661.5	0	0	0	0	0	0	0	0	0	0	0	0	0	0	0	0	0	0	855	768	0
1651053504396	263.52	-84.424	979.904	44.1	69.02	73.92	-42	-237	-673.5	0	0	0	0	0	0	0	0	0	0	0	0	0	0	0	0	0	0	852	772	0
1651053504406	243.512	-68.32	995.032	38.99	74.97	63.42	-34.5	-231	-678	0	0	0	0	0	0	0	0	0	0	0	0	0	0	0	0	0	0	853	771	0
1651053504416	264.008	-31.232	1019.432	30.87	68.95	66.08	-31.5	-225	-685.5	0	0	0	0	0	0	0	0	0	0	0	0	0	0	0	0	0	0	856	776	0
1651053504426	273.28	-10.248	1055.056	20.09	53.55	63.77	-31.5	-222	-693	0	0	0	0	0	0	0	0	0	0	0	0	0	0	0	0	0	0	859	770	0
1651053504436	257.176	-9.76	1072.136	13.16	41.79	58.87	-28.5	-217.5	-696	0	0	0	0	0	0	0	0	0	0	0	0	0	0	0	0	0	0	847	775	0
1651053504446	227.896	0.488	1057.496	13.86	31.01	56.07	-25.5	-216	-696	0	0	0	0	0	0	0	0	0	0	0	0	0	0	0	0	0	0	853	770	0
1651053504456	196.176	22.448	1030.168	8.05	24.29	54.6	-25.5	-213	-694.5	0	0	0	0	0	0	0	0	0	0	0	0	0	0	0	0	0	0	859	771	0
1651053504466	162.016	35.136	1001.864	3.01	10.43	56	-24	-213	-694.5	0	0	0	0	0	0	0	0	0	0	0	0	0	0	0	0	0	0	857	773	0
1651053504476	165.432	15.128	989.664	9.17	2.1	57.54	-16.5	-205.5	-694.5	0	0	0	0	0	0	0	0	0	0	0	0	0	0	0	0	0	0	863	769	0
1651053504486	184.952	-7.808	974.536	22.68	16.73	55.37	-13.5	-196.5	-694.5	0	0	0	0	0	0	0	0	0	0	0	0	0	0	0	0	0	0	850	767	0
1651053504496	226.92	34.648	975.024	41.37	37.1	46.27	-13.5	-202.5	-697.5	0	0	0	0	0	0	0	0	0	0	0	0	0	0	0	0	0	0	855	768	0
1651053504506	225.456	91.744	964.776	47.88	43.05	42.84	-16.5	-202.5	-699	0	0	0	0	0	0	0	0	0	0	0	0	0	0	0	0	0	0	845	774	0
1651053504516	198.616	113.216	968.192	47.81	37.94	46.13	-22.5	-199.5	-706.5	0	0	0	0	0	0	0	0	0	0	0	0	0	0	0	0	0	0	852	761	0
1651053504526	210.816	108.336	929.152	37.24	36.82	49	-21	-198	-711	0	0	0	0	0	0	0	0	0	0	0	0	0	0	0	0	0	0	853	772	0
1651053504536	175.192	117.608	896.944	26.88	39.62	49.91	-13.5	-196.5	-711	0	0	0	0	0	0	0	0	0	0	0	0	0	0	0	0	0	0	850	769	0
1651053504546	168.36	118.584	896.456	24.57	40.67	54.25	-7.5	-190.5	-712.5	0	0	0	0	0	0	0	0	0	0	0	0	0	0	0	0	0	0	862	771	0
1651053504556	180.072	101.016	910.12	22.61	42.77	55.79	-12	-186	-717	0	0	0	0	0	0	0	0	0	0	0	0	0	0	0	0	0	0	860	762	0
1651053504566	167.384	85.888	898.408	20.16	47.39	55.37	-16.5	-177	-715.5	0	0	0	0	0	0	0	0	0	0	0	0	0	0	0	0	0	0	850	780	0
1651053504576	117.12	70.272	892.552	18.55	55.51	53.48	-16.5	-172.5	-720	0	0	0	0	0	0	0	0	0	0	0	0	0	0	0	0	0	0	859	770	0
1651053504586	192.76	83.448	996.496	15.4	61.04	57.61	-10.5	-171	-730.5	0	0	0	0	0	0	0	0	0	0	0	0	0	0	0	0	0	0	852	780	0
1651053504596	209.352	2.44	1012.112	23.87	48.58	47.95	-4.5	-163.5	-732	0	0	0	0	0	0	0	0	0	0	0	0	0	0	0	0	0	0	859	775	0
1651053504606	187.392	61.976	1013.576	35.49	56.35	42.21	-6	-163.5	-730.5	0	0	0	0	0	0	0	0	0	0	0	0	0	0	0	0	0	0	849	769	0
1651053504616	138.104	113.704	970.632	40.81	53.27	40.46	-4.5	-160.5	-735	0	0	0	0	0	0	0	0	0	0	0	0	0	0	0	0	0	0	864	773	0
1651053504626	112.728	134.688	964.776	45.85	53.76	42.14	-1.5	-150	-738	0	0	0	0	0	0	0	0	0	0	0	0	0	0	0	0	0	0	856	778	0
1651053504636	120.048	153.72	975.024	38.64	57.05	49.14	-3	-148.5	-741	0	0	0	0	0	0	0	0	0	0	0	0	0	0	0	0	0	0	871	772	0
1651053504646	133.712	121.512	995.032	30.52	57.4	50.12	-6	-150	-744	0	0	0	0	0	0	0	0	0	0	0	0	0	0	0	0	0	0	855	776	0
1651053504656	181.048	113.216	1015.528	28.91	55.09	50.96	-7.5	-138	-750	0	0	0	0	0	0	0	0	0	0	0	0	0	0	0	0	0	0	861	769	0
1651053504666	170.8	105.896	1015.528	29.89	52.15	49.42	-9	-133.5	-753	0	0	0	0	0	0	0	0	0	0	0	0	0	0	0	0	0	0	852	764	0
1651053504676	172.752	98.576	1004.304	21.49	41.3	47.67	-10.5	-138	-757.5	0	0	0	0	0	0	0	0	0	0	0	0	0	0	0	0	0	0	852	767	0
1651053504686	141.032	96.624	980.88	14.42	35.84	44.38	-7.5	-133.5	-763.5	0	0	0	0	0	0	0	0	0	0	0	0	0	0	0	0	0	0	855	763	0
1651053504696	83.936	112.24	934.032	17.5	35.49	43.96	-1.5	-127.5	-763.5	0	0	0	0	0	0	0	0	0	0	0	0	0	0	0	0	0	0	858	760	0
1651053504706	92.232	113.216	951.6	16.52	37.03	43.26	-1.5	-121.5	-763.5	0	0	0	0	0	0	0	0	0	0	0	0	0	0	0	0	0	0	857	758	0
1651053504716	73.688	114.68	958.432	17.29	39.2	46.76	-1.5	-115.5	-768	0	0	0	0	0	0	0	0	0	0	0	0	0	0	0	0	0	0	854	767	0
1651053504726	88.816	91.744	934.032	16.1	37.66	48.65	0	-111	-772.5	0	0	0	0	0	0	0	0	0	0	0	0	0	0	0	0	0	0	861	764	0
1651053504736	40.992	114.68	935.496	12.67	34.93	45.71	-1.5	-108	-769.5	0	0	0	0	0	0	0	0	0	0	0	0	0	0	0	0	0	0	867	768	0
1651053504746	10.248	150.792	873.52	10.78	39.27	50.4	0	-106.5	-769.5	0	0	0	0	0	0	0	0	0	0	0	0	0	0	0	0	0	0	868	778	0
1651053504756	33.672	155.672	924.76	7.63	41.72	55.72	6	-99	-771	0	0	0	0	0	0	0	0	0	0	0	0	0	0	0	0	0	0	869	768	0
1651053504766	37.576	135.176	952.576	13.02	49.42	59.22	3	-94.5	-772.5	0	0	0	0	0	0	0	0	0	0	0	0	0	0	0	0	0	0	863	766	0
1651053504776	104.432	116.632	983.32	10.01	67.34	61.81	0	-88.5	-771	0	0	0	0	0	0	0	0	0	0	0	0	0	0	0	0	0	0	862	778	0
1651053504786	132.736	96.624	1018.456	1.19	52.43	64.26	4.5	-87	-775.5	0	0	0	0	0	0	0	0	0	0	0	0	0	0	0	0	0	0	873	765	0
1651053504796	106.872	55.144	1028.216	-10.78	47.74	50.89	9	-87	-781.5	0	0	0	0	0	0	0	0	0	0	0	0	0	0	0	0	0	0	863	778	0
1651053504806	101.016	43.92	1039.44	-8.54	47.11	44.94	13.5	-79.5	-786	0	0	0	0	0	0	0	0	0	0	0	0	0	0	0	0	0	0	866	775	0
1651053504816	84.912	15.616	1014.552	-6.65	45.78	39.34	15	-76.5	-784.5	0	0	0	0	0	0	0	0	0	0	0	0	0	0	0	0	0	0	868	777	0
1651053504826	61	43.92	1017.48	-7.63	43.12	32.41	22.5	-75	-786	0	0	0	0	0	0	0	0	0	0	0	0	0	0	0	0	0	0	859	779	0
1651053504836	79.056	46.848	1030.168	-8.19	47.25	25.69	28.5	-69	-790.5	0	0	0	0	0	0	0	0	0	0	0	0	0	0	0	0	0	0	870	781	0
1651053504846	65.392	19.52	1058.472	-19.11	47.6	24.57	24	-61.5	-783	0	0	0	0	0	0	0	0	0	0	0	0	0	0	0	0	0	0	865	783	0
1651053504857	114.192	-27.328	1126.792	-25.76	47.67	25.06	22.5	-55.5	-781.5	0	0	0	0	0	0	0	0	0	0	0	0	0	0	0	0	0	0	868	774	0
1651053504867	173.728	-41.48	1197.552	-22.61	49.28	21.91	28.5	-57	-789	0	0	0	0	0	0	0	0	0	0	0	0	0	0	0	0	0	0	872	778	0
1651053504877	188.856	-30.256	1200.968	-21	44.52	14.28	30	-51	-789	0	0	0	0	0	0	0	0	0	0	0	0	0	0	0	0	0	0	873	774	0
1651053504887	134.688	-26.84	1132.16	-26.11	24.99	10.29	28.5	-45	-787.5	0	0	0	0	0	0	0	0	0	0	0	0	0	0	0	0	0	0	867	778	0
1651053504897	69.296	-25.376	980.392	-35.35	7.07	3.64	33	-42	-793.5	0	0	0	0	0	0	0	0	0	0	0	0	0	0	0	0	0	0	870	774	0
1651053504907	-52.704	66.368	943.792	-27.58	7.28	7.98	37.5	-40.5	-787.5	0	0	0	0	0	0	0	0	0	0	0	0	0	0	0	0	0	0	865	775	0
1651053504917	1.952	60.024	933.056	-18.2	9.24	14.63	42	-43.5	-786	0	0	0	0	0	0	0	0	0	0	0	0	0	0	0	0	0	0	870	770	0
1651053504927	53.192	34.648	976.488	-20.3	15.61	14.21	42	-46.5	-789	0	0	0	0	0	0	0	0	0	0	0	0	0	0	0	0	0	0	871	781	0
1651053504937	107.848	-3.904	1033.584	-22.19	14.42	9.66	43.5	-43.5	-787.5	0	0	0	0	0	0	0	0	0	0	0	0	0	0	0	0	0	0	870	779	0
1651053504947	127.856	-22.448	1033.584	-24.43	5.39	9.87	46.5	-37.5	-790.5	0	0	0	0	0	0	0	0	0	0	0	0	0	0	0	0	0	0	866	778	0
1651053504957	153.72	-7.808	1023.336	-25.41	-0.98	14.77	43.5	-39	-787.5	0	0	0	0	0	0	0	0	0	0	0	0	0	0	0	0	0	0	862	785	0
1651053504967	55.144	-41.48	1042.856	-40.95	-13.93	14.21	51	-40.5	-790.5	0	0	0	0	0	0	0	0	0	0	0	0	0	0	0	0	0	0	864	783	0
1651053504977	103.456	-109.312	1023.336	-52.43	-22.54	14.35	55.5	-36	-790.5	0	0	0	0	0	0	0	0	0	0	0	0	0	0	0	0	0	0	872	778	0
1651053504987	101.016	-84.424	1060.424	-56.28	-24.92	12.11	58.5	-40.5	-793.5	0	0	0	0	0	0	0	0	0	0	0	0	0	0	0	0	0	0	862	781	0
1651053504997	81.008	-62.464	1006.744	-52.92	-31.36	6.93	64.5	-45	-790.5	0	0	0	0	0	0	0	0	0	0	0	0	0	0	0	0	0	0	870	775	0
1651053505007	96.136	-43.92	1034.56	-33.53	-40.74	7.35	66	-43.5	-781.5	0	0	0	0	0	0	0	0	0	0	0	0	0	0	0	0	0	0	860	777	0
1651053505017	129.808	-81.496	1009.672	-22.47	-17.5	-8.82	72	-42	-780	0	0	0	0	0	0	0	0	0	0	0	0	0	0	0	0	0	0	861	785	0
1651053505027	207.4	-33.672	1045.296	-14.91	-20.09	-25.48	78	-48	-778.5	0	0	0	0	0	0	0	0	0	0	0	0	0	0	0	0	0	0	869	770	0
1651053505037	219.112	38.064	1035.536	-13.51	-25.83	-34.51	75	-52.5	-774	0	0	0	0	0	0	0	0	0	0	0	0	0	0	0	0	0	0	861	780	0
1651053505047	168.848	105.408	995.52	-13.02	-25.76	-36.61	73.5	-48	-775.5	0	0	0	0	0	0	0	0	0	0	0	0	0	0	0	0	0	0	861	784	0
1651053505057	132.736	176.168	964.776	-20.79	-29.47	-30.94	75	-49.5	-780	0	0	0	0	0	0	0	0	0	0	0	0	0	0	0	0	0	0	867	778	0
1651053505067	47.824	178.608	901.336	-24.92	-36.47	-20.72	69	-54	-769.5	0	0	0	0	0	0	0	0	0	0	0	0	0	0	0	0	0	0	872	776	0
1651053505077	-42.944	144.448	864.248	-25.48	-33.53	-0.63	73.5	-61.5	-768	0	0	0	0	0	0	0	0	0	0	0	0	0	0	0	0	0	0	864	783	0
1651053505087	-80.52	101.504	815.936	-27.16	-24.43	24.99	76.5	-63	-768	0	0	0	0	0	0	0	0	0	0	0	0	0	0	0	0	0	0	861	790	0
1651053505097	-105.896	11.224	820.328	-33.46	-13.3	42.91	79.5	-64.5	-769.5	0	0	0	0	0	0	0	0	0	0	0	0	0	0	0	0	0	0	863	791	0
1651053505107	-174.704	-113.704	899.872	-7.77	31.64	120.68	85.5	-69	-769.5	0	0	0	0	0	0	0	0	0	0	0	0	0	0	0	0	0	0	868	793	0
1651053505117	-62.952	-191.784	980.88	-14.56	56.21	131.74	93	-64.5	-769.5	0	0	0	0	0	0	0	0	0	0	0	0	0	0	0	0	0	0	853	801	0
1651053505127	-79.056	-301.584	1072.624	-49.7	60.69	100.1	91.5	-54	-768	0	0	0	0	0	0	0	0	0	0	0	0	0	0	0	0	0	0	873	796	0
1651053505137	12.688	-318.664	1150.216	-76.86	51.17	58.73	93	-49.5	-768	0	0	0	0	0	0	0	0	0	0	0	0	0	0	0	0	0	0	871	804	0
1651053505147	-113.704	-243.024	1211.704	-87.78	48.16	20.09	100.5	-42	-763.5	0	0	0	0	0	0	0	0	0	0	0	0	0	0	0	0	0	0	858	795	0
1651053505157	10.248	-196.664	1225.856	-112.77	18.27	-2.59	117	-37.5	-760.5	0	0	0	0	0	0	0	0	0	0	0	0	0	0	0	0	0	0	865	802	0
1651053505167	-95.648	-114.192	1225.368	-106.05	15.61	-21.56	129	-36	-757.5	0	0	0	0	0	0	0	0	0	0	0	0	0	0	0	0	0	0	872	814	0
1651053505177	-152.744	40.504	1169.736	-92.89	17.64	-21.56	132	-34.5	-754.5	0	0	0	0	0	0	0	0	0	0	0	0	0	0	0	0	0	0	873	815	0
1651053505187	-97.112	40.016	1204.872	-63.35	20.16	-22.05	133.5	-33	-751.5	0	0	0	0	0	0	0	0	0	0	0	0	0	0	0	0	0	0	876	812	0
1651053505197	-40.504	55.144	1207.8	-29.33	16.73	-18.97	136.5	-34.5	-757.5	0	0	0	0	0	0	0	0	0	0	0	0	0	0	0	0	0	0	870	817	0
1651053505207	-15.128	-8.784	1100.44	11.27	35.91	4.83	135	-36	-753	0	0	0	0	0	0	0	0	0	0	0	0	0	0	0	0	0	0	872	819	0
1651053505217	-10.248	-18.544	1042.856	17.29	46.62	14.21	135	-33	-753	0	0	0	0	0	0	0	0	0	0	0	0	0	0	0	0	0	0	873	814	0
1651053505227	-13.176	-4.88	996.008	4.13	45.71	17.85	129	-25.5	-756	0	0	0	0	0	0	0	0	0	0	0	0	0	0	0	0	0	0	877	821	0
1651053505237	-61	-104.92	989.664	-21.14	39.2	20.16	133.5	-25.5	-756	0	0	0	0	0	0	0	0	0	0	0	0	0	0	0	0	0	0	869	816	0
1651053505247	63.928	-192.76	1020.408	-33.39	43.47	37.94	141	-21	-759	0	0	0	0	0	0	0	0	0	0	0	0	0	0	0	0	0	0	865	811	0
1651053505257	153.232	-87.84	886.208	-27.86	12.6	48.16	145.5	-12	-760.5	0	0	0	0	0	0	0	0	0	0	0	0	0	0	0	0	0	0	868	800	0
1651053505267	268.4	193.736	432.368	-22.26	29.89	26.39	151.5	-7.5	-759	0	0	0	0	0	0	0	0	0	0	0	0	0	0	0	0	0	0	873	811	0
1651053505277	-73.2	27.816	865.224	-24.99	25.34	63.21	159	1.5	-762	0	0	0	0	0	0	0	0	0	0	0	0	0	0	0	0	0	0	863	809	0
1651053505287	6.344	-168.848	867.664	-41.86	23.87	50.89	157.5	9	-762	0	0	0	0	0	0	0	0	0	0	0	0	0	0	0	0	0	0	856	806	0
1651053505297	-37.088	-112.24	952.576	-32.41	23.31	50.26	154.5	13.5	-762	0	0	0	0	0	0	0	0	0	0	0	0	0	0	0	0	0	0	855	802	0
1651053505307	32.696	-125.416	964.776	-8.68	24.57	19.11	160.5	10.5	-763.5	0	0	0	0	0	0	0	0	0	0	0	0	0	0	0	0	0	0	854	804	0
1651053505317	23.424	-163.48	953.552	2.59	26.25	6.09	163.5	13.5	-760.5	0	0	0	0	0	0	0	0	0	0	0	0	0	0	0	0	0	0	857	789	0
1651053505327	-6.344	-207.4	938.912	11.9	26.88	-17.22	168	19.5	-760.5	0	0	0	0	0	0	0	0	0	0	0	0	0	0	0	0	0	0	855	799	0
1651053505337	-27.328	-230.824	904.264	8.26	25.27	-42.21	159	19.5	-762	0	0	0	0	0	0	0	0	0	0	0	0	0	0	0	0	0	0	858	796	0
1651053505347	-67.832	-174.704	890.112	-14.35	25.48	-25.76	154.5	18	-763.5	0	0	0	0	0	0	0	0	0	0	0	0	0	0	0	0	0	0	861	814	0
1651053505357	-188.856	83.936	916.952	-26.18	27.02	-6.16	163.5	21	-763.5	0	0	0	0	0	0	0	0	0	0	0	0	0	0	0	0	0	0	857	858	0
1651053505367	-78.568	-274.256	938.424	-1.05	45.22	121.73	163.5	21	-763.5	0	0	0	0	0	0	0	0	0	0	0	0	0	0	0	0	0	0	864	977	0
1651053505377	21.96	-349.408	836.432	1.61	29.47	-23.87	163.5	24	-760.5	0	0	0	0	0	0	0	0	0	0	0	0	0	0	0	0	0	0	876	1243	0
1651053505387	-156.16	-110.288	972.096	-34.23	36.26	-16.8	156	27	-760.5	0	0	0	0	0	0	0	0	0	0	0	0	0	0	0	0	0	0	911	1756	0
1651053505397	-94.672	-131.272	1057.984	-22.33	36.26	6.3	156	27	-762	0	0	0	0	0	0	0	0	0	0	0	0	0	0	0	0	0	0	1161	2623	0
1651053505407	-132.248	-222.04	1011.624	13.23	30.66	8.47	162	27	-760.5	0	0	0	0	0	0	0	0	0	0	0	0	0	0	0	0	0	0	1837	4053	0
1651053505417	-156.648	-134.2	984.784	21.49	30.66	9.59	162	40.5	-762	0	0	0	0	0	0	0	0	0	0	0	0	0	0	0	0	0	0	3126	9259	0
1651053505427	-186.904	-101.504	952.088	24.78	32.97	13.23	163.5	48	-760.5	0	0	0	0	0	0	0	0	0	0	0	0	0	0	0	0	0	0	22082	38821	0
1651053505437	-166.896	-75.64	1005.768	31.29	33.32	20.37	160.5	48	-759	0	0	0	0	0	0	0	0	0	0	0	0	0	0	0	0	0	0	4869	12695	0
1651053505447	-135.664	-79.056	1086.776	26.25	29.05	32.48	157.5	49.5	-766.5	0	0	0	0	0	0	0	0	0	0	0	0	0	0	0	0	0	0	1134	2944	0
1651053505457	-96.136	-137.616	1122.4	25.69	22.05	23.8	156	46.5	-768	0	0	0	0	0	0	0	0	0	0	0	0	0	0	0	0	0	0	870	1317	0
1651053505467	-106.384	-115.656	1093.608	35.77	29.19	5.32	156	49.5	-769.5	0	0	0	0	0	0	0	0	0	0	0	0	0	0	0	0	0	0	896	939	0
1651053505477	-163.968	-40.016	1037	25.83	35.14	4.48	153	52.5	-769.5	0	0	0	0	0	0	0	0	0	0	0	0	0	0	0	0	0	0	922	870	0
1651053505487	-200.568	-21.96	968.68	22.61	41.93	3.78	148.5	57	-772.5	0	0	0	0	0	0	0	0	0	0	0	0	0	0	0	0	0	0	995	935	0
1651053505497	-280.112	37.576	889.624	38.85	44.24	3.64	148.5	58.5	-774	0	0	0	0	0	0	0	0	0	0	0	0	0	0	0	0	0	0	946	890	0
1651053505507	-282.064	31.232	887.672	53.48	48.65	5.46	145.5	58.5	-775.5	0	0	0	0	0	0	0	0	0	0	0	0	0	0	0	0	0	0	905	839	0
1651053505517	-216.184	-128.344	1004.304	61.11	59.15	8.05	144	69	-781.5	0	0	0	0	0	0	0	0	0	0	0	0	0	0	0	0	0	0	888	824	0
1651053505527	-163.48	-152.744	1060.424	72.66	57.68	-4.2	142.5	75	-786	0	0	0	0	0	0	0	0	0	0	0	0	0	0	0	0	0	0	883	826	0
1651053505537	-187.88	-78.08	1040.904	89.67	50.61	-15.68	135	75	-789	0	0	0	0	0	0	0	0	0	0	0	0	0	0	0	0	0	0	883	820	0
1651053505547	-224.48	-40.016	935.496	93.59	46.69	-8.54	124.5	75	-789	0	0	0	0	0	0	0	0	0	0	0	0	0	0	0	0	0	0	870	807	0
1651053505557	-279.624	-87.352	867.664	79.66	46.83	0.49	120	85.5	-793.5	0	0	0	0	0	0	0	0	0	0	0	0	0	0	0	0	0	0	852	787	0
1651053505567	-297.192	-130.296	870.592	60.83	54.81	6.51	114	93	-798	0	0	0	0	0	0	0	0	0	0	0	0	0	0	0	0	0	0	849	765	0
1651053505577	-322.568	-159.088	869.128	48.3	61.95	13.16	106.5	97.5	-802.5	0	0	0	0	0	0	0	0	0	0	0	0	0	0	0	0	0	0	841	766	0
1651053505587	-474.336	-88.816	832.04	30.17	76.37	36.47	99	103.5	-804	0	0	0	0	0	0	0	0	0	0	0	0	0	0	0	0	0	0	853	768	0
1651053505597	-353.312	-61.976	907.68	6.16	88.27	90.09	94.5	108	-804	0	0	0	0	0	0	0	0	0	0	0	0	0	0	0	0	0	0	867	790	0
1651053505607	-325.496	26.84	935.496	-7.98	89.11	118.37	96	115.5	-804	0	0	0	0	0	0	0	0	0	0	0	0	0	0	0	0	0	0	862	782	0
1651053505617	-283.528	65.392	946.72	-28.21	88.27	156.1	91.5	130.5	-802.5	0	0	0	0	0	0	0	0	0	0	0	0	0	0	0	0	0	0	860	779	0
1651053505627	-201.056	43.432	1026.752	-14.56	72.52	135.45	91.5	144	-799.5	0	0	0	0	0	0	0	0	0	0	0	0	0	0	0	0	0	0	870	788	0
1651053505637	-269.864	-39.528	966.24	11.41	57.82	101.64	96	154.5	-796.5	0	0	0	0	0	0	0	0	0	0	0	0	0	0	0	0	0	0	872	789	0
1651053505647	-288.896	0.488	866.2	20.09	57.61	59.71	91.5	168	-799.5	0	0	0	0	0	0	0	0	0	0	0	0	0	0	0	0	0	0	871	786	0
1651053505657	-336.232	20.496	875.472	19.25	61.32	17.01	90	174	-801	0	0	0	0	0	0	0	0	0	0	0	0	0	0	0	0	0	0	858	774	0
1651053505667	-377.712	3.416	1002.352	26.18	54.32	0.49	93	178.5	-796.5	0	0	0	0	0	0	0	0	0	0	0	0	0	0	0	0	0	0	850	750	0
1651053505677	-378.688	-90.28	1085.8	36.05	36.82	2.59	87	189	-793.5	0	0	0	0	0	0	0	0	0	0	0	0	0	0	0	0	0	0	857	755	0
1651053505687	-308.904	-203.008	1165.832	48.37	16.59	-11.62	78	198	-796.5	0	0	0	0	0	0	0	0	0	0	0	0	0	0	0	0	0	0	864	764	0
1651053505698	-288.408	-186.904	1277.096	58.38	-25.97	-3.64	78	201	-799.5	0	0	0	0	0	0	0	0	0	0	0	0	0	0	0	0	0	0	862	751	0
1651053505708	-365.024	-84.424	1152.656	49	-67.13	39.83	79.5	198	-802.5	0	0	0	0	0	0	0	0	0	0	0	0	0	0	0	0	0	0	858	752	0
1651053505718	-417.24	19.032	884.256	27.16	-82.6	82.32	70.5	195	-805.5	0	0	0	0	0	0	0	0	0	0	0	0	0	0	0	0	0	0	855	761	0
1651053505728	-462.136	192.76	699.304	28.63	-80.78	122.36	70.5	192	-799.5	0	0	0	0	0	0	0	0	0	0	0	0	0	0	0	0	0	0	860	773	0
1651053505738	-483.608	351.36	526.064	28.35	-69.37	179.13	69	190.5	-801	0	0	0	0	0	0	0	0	0	0	0	0	0	0	0	0	0	0	863	779	0
1651053505748	-519.232	352.336	670.512	10.5	-48.02	238.42	58.5	192	-807	0	0	0	0	0	0	0	0	0	0	0	0	0	0	0	0	0	0	865	800	0
1651053505758	-415.776	172.264	817.4	-13.79	-22.96	246.68	57	199.5	-805.5	0	0	0	0	0	0	0	0	0	0	0	0	0	0	0	0	0	0	865	820	0
1651053505768	-272.304	-66.368	1005.768	-29.05	-7.35	181.37	55.5	204	-801	0	0	0	0	0	0	0	0	0	0	0	0	0	0	0	0	0	0	873	858	0
1651053505778	-225.944	-124.44	1174.616	-21.98	-7.84	87.29	49.5	204	-801	0	0	0	0	0	0	0	0	0	0	0	0	0	0	0	0	0	0	894	938	0
1651053505788	-285.48	-172.752	1426.912	-4.27	-70.84	35.84	46.5	210	-805.5	0	0	0	0	0	0	0	0	0	0	0	0	0	0	0	0	0	0	934	1009	0
1651053505798	-426.024	-78.568	1472.296	13.51	-166.67	77.63	52.5	214.5	-802.5	0	0	0	0	0	0	0	0	0	0	0	0	0	0	0	0	0	0	990	1100	0
1651053505808	-340.624	-9.76	1455.216	3.85	-268.87	168.98	52.5	213	-805.5	0	0	0	0	0	0	0	0	0	0	0	0	0	0	0	0	0	0	1062	1210	0
1651053505818	-127.368	128.832	1087.752	-55.44	-307.16	185.15	49.5	199.5	-807	0	0	0	0	0	0	0	0	0	0	0	0	0	0	0	0	0	0	1131	1180	0
1651053505828	-151.28	285.968	943.792	-68.95	-252.42	179.41	46.5	180	-802.5	0	0	0	0	0	0	0	0	0	0	0	0	0	0	0	0	0	0	1114	1171	0
1651053505838	-8.784	382.592	977.464	-79.17	-208.95	171.5	49.5	163.5	-804	0	0	0	0	0	0	0	0	0	0	0	0	0	0	0	0	0	0	1126	1123	0
1651053505848	-59.536	385.032	899.872	-68.32	-132.3	136.85	58.5	150	-805.5	0	0	0	0	0	0	0	0	0	0	0	0	0	0	0	0	0	0	1115	1042	0
1651053505858	-52.216	305.976	983.32	-63.49	-43.54	138.67	60	139.5	-801	0	0	0	0	0	0	0	0	0	0	0	0	0	0	0	0	0	0	1065	991	0
1651053505868	23.424	216.184	1098	-49.84	-11.55	164.64	61.5	138	-801	0	0	0	0	0	0	0	0	0	0	0	0	0	0	0	0	0	0	1044	957	0
1651053505878	190.808	77.592	1168.272	-38.99	-42.63	174.93	69	141	-798	0	0	0	0	0	0	0	0	0	0	0	0	0	0	0	0	0	0	1017	934	0
1651053505888	155.184	42.944	1137.528	-28.7	-56.77	137.69	78	147	-796.5	0	0	0	0	0	0	0	0	0	0	0	0	0	0	0	0	0	0	1010	936	0
1651053505898	87.84	68.808	1061.888	-19.32	-42.14	92.75	85.5	150	-796.5	0	0	0	0	0	0	0	0	0	0	0	0	0	0	0	0	0	0	1005	933	0
1651053505908	51.24	109.8	1012.6	-14.77	-28.49	76.23	81	150	-796.5	0	0	0	0	0	0	0	0	0	0	0	0	0	0	0	0	0	0	989	927	0
1651053505918	101.992	165.432	987.224	-19.53	-67.62	82.32	76.5	154.5	-792	0	0	0	0	0	0	0	0	0	0	0	0	0	0	0	0	0	0	976	922	0
1651053505928	284.992	224.48	967.704	-29.82	-106.19	91	84	156	-792	0	0	0	0	0	0	0	0	0	0	0	0	0	0	0	0	0	0	957	907	0
1651053505938	517.28	248.392	894.016	-36.82	-108.71	91.91	85.5	153	-792	0	0	0	0	0	0	0	0	0	0	0	0	0	0	0	0	0	0	938	898	0
1651053505948	736.88	234.728	916.952	-28.77	-45.43	54.81	87	148.5	-792	0	0	0	0	0	0	0	0	0	0	0	0	0	0	0	0	0	0	936	889	0
1651053505958	381.616	197.64	846.68	-3.22	26.81	-21.98	85.5	145.5	-790.5	0	0	0	0	0	0	0	0	0	0	0	0	0	0	0	0	0	0	917	876	0
1651053505968	115.168	141.032	916.464	9.66	46.97	-38.64	87	142.5	-793.5	0	0	0	0	0	0	0	0	0	0	0	0	0	0	0	0	0	0	912	847	0
1651053505978	23.912	95.648	1037	7.07	30.8	-25.83	85.5	145.5	-798	0	0	0	0	0	0	0	0	0	0	0	0	0	0	0	0	0	0	900	835	0
1651053505988	92.72	-307.928	1198.04	12.67	177.38	-28.28	81	151.5	-793.5	0	0	0	0	0	0	0	0	0	0	0	0	0	0	0	0	0	0	890	821	0
1651053505998	-2.44	83.936	1088.728	27.37	176.82	-19.81	76.5	162	-787.5	0	0	0	0	0	0	0	0	0	0	0	0	0	0	0	0	0	0	881	817	0
1651053506008	-70.272	40.504	1028.704	10.5	110.67	-23.87	76.5	175.5	-792	0	0	0	0	0	0	0	0	0	0	0	0	0	0	0	0	0	0	881	818	0
1651053506018	-55.632	-18.056	1064.328	-6.93	68.04	-7.21	81	178.5	-790.5	0	0	0	0	0	0	0	0	0	0	0	0	0	0	0	0	0	0	877	828	0
1651053506028	-96.136	44.896	1001.864	-9.66	67.76	-13.3	79.5	181.5	-795	0	0	0	0	0	0	0	0	0	0	0	0	0	0	0	0	0	0	874	831	0
1651053506038	-103.456	66.368	955.992	-11.69	59.78	-9.73	79.5	195	-804	0	0	0	0	0	0	0	0	0	0	0	0	0	0	0	0	0	0	882	826	0
1651053506048	-144.448	106.872	916.952	-11.76	32.34	-8.47	76.5	207	-796.5	0	0	0	0	0	0	0	0	0	0	0	0	0	0	0	0	0	0	872	839	0
1651053506058	-137.128	94.184	943.304	-10.71	1.61	-8.96	78	207	-790.5	0	0	0	0	0	0	0	0	0	0	0	0	0	0	0	0	0	0	876	829	0
1651053506068	-124.928	104.432	923.784	-0.63	-12.74	-7.56	79.5	201	-792	0	0	0	0	0	0	0	0	0	0	0	0	0	0	0	0	0	0	875	824	0
1651053506078	-122.488	111.752	917.928	3.99	-19.18	-7.63	81	202.5	-792	0	0	0	0	0	0	0	0	0	0	0	0	0	0	0	0	0	0	873	815	0
1651053506088	-37.576	142.984	922.808	8.89	-10.15	-0.91	84	207	-792	0	0	0	0	0	0	0	0	0	0	0	0	0	0	0	0	0	0	868	830	0
1651053506098	-3.416	162.016	929.152	10.43	5.04	8.47	78	199.5	-793.5	0	0	0	0	0	0	0	0	0	0	0	0	0	0	0	0	0	0	876	819	0
1651053506108	12.688	136.64	972.584	9.59	17.78	14.7	73.5	201	-792	0	0	0	0	0	0	0	0	0	0	0	0	0	0	0	0	0	0	868	806	0
1651053506118	-22.448	97.112	988.2	10.71	21	10.99	72	207	-790.5	0	0	0	0	0	0	0	0	0	0	0	0	0	0	0	0	0	0	861	806	0
1651053506128	-209.84	155.184	833.016	-6.3	65.17	10.22	78	211.5	-787.5	0	0	0	0	0	0	0	0	0	0	0	0	0	0	0	0	0	0	870	791	0
1651053506138	-218.136	131.272	673.44	5.67	61.25	0.42	73.5	214.5	-787.5	0	0	0	0	0	0	0	0	0	0	0	0	0	0	0	0	0	0	866	783	0
1651053506148	-365.024	183	808.616	2.8	54.74	-12.18	69	217.5	-784.5	0	0	0	0	0	0	0	0	0	0	0	0	0	0	0	0	0	0	874	776	0
1651053506158	67.832	-9.76	902.312	13.44	30.38	3.64	70.5	219	-780	0	0	0	0	0	0	0	0	0	0	0	0	0	0	0	0	0	0	865	772	0
1651053506168	-65.88	139.568	1112.152	24.01	13.58	-3.22	67.5	223.5	-783	0	0	0	0	0	0	0	0	0	0	0	0	0	0	0	0	0	0	869	769	0
1651053506178	-129.32	54.656	1127.768	10.57	-31.71	-5.53	66	229.5	-786	0	0	0	0	0	0	0	0	0	0	0	0	0	0	0	0	0	0	865	761	0
1651053506188	-40.992	22.448	1214.632	16.31	-60.34	-3.57	67.5	232.5	-781.5	0	0	0	0	0	0	0	0	0	0	0	0	0	0	0	0	0	0	859	759	0
1651053506198	30.744	-11.712	1273.192	11.34	-76.3	-1.05	63	232.5	-781.5	0	0	0	0	0	0	0	0	0	0	0	0	0	0	0	0	0	0	857	756	0
1651053506208	54.656	-9.76	1244.4	-0.91	-53.69	10.08	60	225	-781.5	0	0	0	0	0	0	0	0	0	0	0	0	0	0	0	0	0	0	857	750	0
1651053506218	-53.192	-42.456	1276.608	-9.1	-23.24	23.1	64.5	220.5	-778.5	0	0	0	0	0	0	0	0	0	0	0	0	0	0	0	0	0	0	847	759	0
1651053506228	494.832	56.12	969.168	-49.77	-18.97	13.02	69	216	-774	0	0	0	0	0	0	0	0	0	0	0	0	0	0	0	0	0	0	848	747	0
1651053506238	-21.472	53.192	969.656	-38.57	21	18.2	69	214.5	-772.5	0	0	0	0	0	0	0	0	0	0	0	0	0	0	0	0	0	0	850	764	0
1651053506248	-173.728	-67.832	1012.6	-23.87	46.48	18.9	64.5	214.5	-772.5	0	0	0	0	0	0	0	0	0	0	0	0	0	0	0	0	0	0	858	760	0
1651053506258	-177.632	-31.232	1130.208	-0.7	18.06	-1.12	64.5	220.5	-774	0	0	0	0	0	0	0	0	0	0	0	0	0	0	0	0	0	0	848	768	0
1651053506268	4.88	28.792	1052.128	-11.27	-18.48	0	64.5	223.5	-769.5	0	0	0	0	0	0	0	0	0	0	0	0	0	0	0	0	0	0	850	771	0
1651053506278	336.72	69.296	1099.464	-7.7	-41.44	-6.3	66	226.5	-768	0	0	0	0	0	0	0	0	0	0	0	0	0	0	0	0	0	0	861	783	0
1651053506288	357.216	63.928	1001.376	-22.05	-58.38	-36.54	64.5	228	-772.5	0	0	0	0	0	0	0	0	0	0	0	0	0	0	0	0	0	0	858	790	0
1651053506298	70.76	75.152	1040.416	-19.74	-46.76	-66.92	61.5	217.5	-769.5	0	0	0	0	0	0	0	0	0	0	0	0	0	0	0	0	0	0	866	793	0
1651053506308	-214.72	75.64	1222.928	-37.31	-52.43	11.06	66	214.5	-769.5	0	0	0	0	0	0	0	0	0	0	0	0	0	0	0	0	0	0	873	783	0
1651053506318	-162.992	-70.76	1143.384	-27.16	-44.59	38.01	69	214.5	-775.5	0	0	0	0	0	0	0	0	0	0	0	0	0	0	0	0	0	0	864	785	0
1651053506328	-282.064	-269.864	1314.672	-27.37	-55.23	69.09	63	208.5	-774	0	0	0	0	0	0	0	0	0	0	0	0	0	0	0	0	0	0	873	781	0
1651053506338	130.784	-226.92	1146.312	-7.56	-88.41	156.38	64.5	207	-769.5	0	0	0	0	0	0	0	0	0	0	0	0	0	0	0	0	0	0	865	786	0
1651053506348	267.424	-75.152	1261.48	-25.55	-74.27	145.81	64.5	202.5	-766.5	0	0	0	0	0	0	0	0	0	0	0	0	0	0	0	0	0	0	871	774	0
1651053506358	491.904	-255.712	1266.848	-46.76	-47.46	122.57	66	201	-775.5	0	0	0	0	0	0	0	0	0	0	0	0	0	0	0	0	0	0	864	787	0
1651053506368	270.84	-500.688	947.208	-69.86	-32.41	138.25	72	207	-780	0	0	0	0	0	0	0	0	0	0	0	0	0	0	0	0	0	0	873	778	0
1651053506378	359.656	-368.44	1540.616	-103.32	-55.51	125.86	73.5	208.5	-775.5	0	0	0	0	0	0	0	0	0	0	0	0	0	0	0	0	0	0	869	773	0
1651053506388	198.616	-189.832	1207.8	-93.59	-44.94	85.54	78	204	-772.5	0	0	0	0	0	0	0	0	0	0	0	0	0	0	0	0	0	0	863	780	0
1651053506398	304.512	-130.296	1215.12	-113.4	-25.41	38.36	87	199.5	-766.5	0	0	0	0	0	0	0	0	0	0	0	0	0	0	0	0	0	0	875	777	0
1651053506408	336.72	-99.064	1260.992	-119	-12.6	-7.35	99	199.5	-771	0	0	0	0	0	0	0	0	0	0	0	0	0	0	0	0	0	0	867	780	0
1651053506418	312.32	-141.52	1188.28	-93.66	-5.67	-28.42	106.5	201	-768	0	0	0	0	0	0	0	0	0	0	0	0	0	0	0	0	0	0	876	781	0
1651053506428	299.144	-253.76	1109.224	-77.14	-9.66	-25.41	114	201	-771	0	0	0	0	0	0	0	0	0	0	0	0	0	0	0	0	0	0	866	772	0
1651053506438	235.704	-275.232	1032.12	-58.31	-5.6	-16.1	120	193.5	-774	0	0	0	0	0	0	0	0	0	0	0	0	0	0	0	0	0	0	863	782	0
1651053506448	163.48	-197.64	899.384	64.75	66.15	2.73	123	189	-772.5	0	0	0	0	0	0	0	0	0	0	0	0	0	0	0	0	0	0	861	770	0
1651053506458	48.312	-373.808	1285.392	148.4	79.73	16.87	127.5	189	-778.5	0	0	0	0	0	0	0	0	0	0	0	0	0	0	0	0	0	0	856	778	0
1651053506468	-81.496	-522.16	1237.568	99.89	43.4	30.03	121.5	189	-786	0	0	0	0	0	0	0	0	0	0	0	0	0	0	0	0	0	0	866	769	0
1651053506478	3.904	-310.856	1043.344	64.33	28.91	6.44	112.5	186	-787.5	0	0	0	0	0	0	0	0	0	0	0	0	0	0	0	0	0	0	871	768	0
1651053506488	-0.488	-350.872	1050.664	158.62	72.8	87.64	112.5	190.5	-795	0	0	0	0	0	0	0	0	0	0	0	0	0	0	0	0	0	0	863	783	0
1651053506498	-14.64	-2.928	786.168	172.76	87.29	134.19	103.5	196.5	-805.5	0	0	0	0	0	0	0	0	0	0	0	0	0	0	0	0	0	0	870	766	0
1651053506508	-89.304	-79.544	1020.896	160.51	69.09	96.04	85.5	199.5	-811.5	0	0	0	0	0	0	0	0	0	0	0	0	0	0	0	0	0	0	866	773	0
1651053506518	-232.288	-194.224	936.472	38.92	24.71	46.2	70.5	202.5	-817.5	0	0	0	0	0	0	0	0	0	0	0	0	0	0	0	0	0	0	864	776	0
1651053506528	-108.824	2.44	804.712	-99.96	-4.48	14.63	67.5	205.5	-822	0	0	0	0	0	0	0	0	0	0	0	0	0	0	0	0	0	0	858	762	0
1651053506539	-170.312	162.016	711.016	-98.42	3.43	-3.22	82.5	204	-819	0	0	0	0	0	0	0	0	0	0	0	0	0	0	0	0	0	0	859	756	0
1651053506549	-126.88	165.432	649.528	-105	-6.16	-15.33	97.5	201	-817.5	0	0	0	0	0	0	0	0	0	0	0	0	0	0	0	0	0	0	861	767	0
1651053506559	-98.576	175.192	658.8	-98.28	-11.41	-28.84	108	192	-814.5	0	0	0	0	0	0	0	0	0	0	0	0	0	0	0	0	0	0	863	757	0
1651053506569	-48.8	122	694.912	-86.38	-19.74	-28.7	114	184.5	-811.5	0	0	0	0	0	0	0	0	0	0	0	0	0	0	0	0	0	0	863	754	0
1651053506579	21.472	109.312	676.856	-90.16	-23.45	-17.64	117	177	-813	0	0	0	0	0	0	0	0	0	0	0	0	0	0	0	0	0	0	866	762	0
1651053506589	17.08	75.64	705.16	-65.03	-11.34	5.25	127.5	177	-808.5	0	0	0	0	0	0	0	0	0	0	0	0	0	0	0	0	0	0	871	765	0
1651053506599	35.136	-3.904	734.928	-65.03	-4.97	20.72	139.5	175.5	-801	0	0	0	0	0	0	0	0	0	0	0	0	0	0	0	0	0	0	869	765	0
1651053506609	29.768	-7.808	768.112	-60.69	4.06	37.73	142.5	166.5	-801	0	0	0	0	0	0	0	0	0	0	0	0	0	0	0	0	0	0	867	770	0
1651053506619	65.392	2.928	793.976	-50.33	13.51	58.1	145.5	169.5	-799.5	0	0	0	0	0	0	0	0	0	0	0	0	0	0	0	0	0	0	871	771	0
1651053506629	51.728	49.288	840.336	-33.46	21.63	71.26	153	174	-799.5	0	0	0	0	0	0	0	0	0	0	0	0	0	0	0	0	0	0	865	776	0
1651053506639	-148.84	118.584	810.568	-14.42	32.13	63.56	156	175.5	-798	0	0	0	0	0	0	0	0	0	0	0	0	0	0	0	0	0	0	874	769	0
1651053506649	-119.56	113.216	782.264	-5.95	29.05	49.49	156	180	-799.5	0	0	0	0	0	0	0	0	0	0	0	0	0	0	0	0	0	0	866	767	0
1651053506659	-29.28	91.744	825.696	-1.61	32.34	31.5	153	180	-802.5	0	0	0	0	0	0	0	0	0	0	0	0	0	0	0	0	0	0	869	768	0
1651053506669	49.776	-7.32	892.064	0.07	31.22	7.77	151.5	181.5	-802.5	0	0	0	0	0	0	0	0	0	0	0	0	0	0	0	0	0	0	869	774	0
1651053506679	146.888	-68.808	955.992	-13.65	11.48	-35.35	156	181.5	-805.5	0	0	0	0	0	0	0	0	0	0	0	0	0	0	0	0	0	0	866	777	0
1651053506689	71.736	3.904	984.296	-30.94	-16.31	-72.17	160.5	178.5	-807	0	0	0	0	0	0	0	0	0	0	0	0	0	0	0	0	0	0	869	777	0
1651053506699	49.776	-14.152	1045.296	-16.94	-28.42	-57.4	168	175.5	-807	0	0	0	0	0	0	0	0	0	0	0	0	0	0	0	0	0	0	870	800	0
1651053506709	60.512	-150.304	1092.632	-7.42	-11.55	-17.29	171	169.5	-810	0	0	0	0	0	0	0	0	0	0	0	0	0	0	0	0	0	0	867	835	0
1651053506719	-60.024	-153.232	1024.312	1.75	1.47	2.1	171	163.5	-808.5	0	0	0	0	0	0	0	0	0	0	0	0	0	0	0	0	0	0	867	899	0
1651053506729	-52.216	-188.368	1074.576	-32.48	-4.83	-9.87	175.5	163.5	-811.5	0	0	0	0	0	0	0	0	0	0	0	0	0	0	0	0	0	0	860	979	0
1651053506739	-73.688	-41.968	1071.648	-55.51	9.1	13.86	174	157.5	-810	0	0	0	0	0	0	0	0	0	0	0	0	0	0	0	0	0	0	870	1123	0
1651053506749	-242.048	-46.36	1038.952	-56.56	28.7	25.41	183	151.5	-804	0	0	0	0	0	0	0	0	0	0	0	0	0	0	0	0	0	0	880	1193	0
1651053506759	-226.92	15.616	954.04	-56.7	51.38	42.63	187.5	157.5	-804	0	0	0	0	0	0	0	0	0	0	0	0	0	0	0	0	0	0	868	1229	0
1651053506769	-163.968	-27.328	1003.328	-54.67	72.24	60.13	186	162	-799.5	0	0	0	0	0	0	0	0	0	0	0	0	0	0	0	0	0	0	860	1221	0
1651053506779	139.08	159.576	843.264	-59.43	78.4	60.9	195	169.5	-798	0	0	0	0	0	0	0	0	0	0	0	0	0	0	0	0	0	0	869	1205	0
1651053506789	-344.04	125.904	984.784	-67.55	91.14	38.01	204	172.5	-796.5	0	0	0	0	0	0	0	0	0	0	0	0	0	0	0	0	0	0	869	1187	0
1651053506799	-38.552	-8.784	930.128	-50.68	71.05	39.27	205.5	178.5	-790.5	0	0	0	0	0	0	0	0	0	0	0	0	0	0	0	0	0	0	876	1205	0
1651053506809	-72.712	-6.344	915	-64.89	43.4	-14.28	214.5	183	-787.5	0	0	0	0	0	0	0	0	0	0	0	0	0	0	0	0	0	0	870	1219	0
1651053506819	-112.728	32.696	999.912	-65.45	14.91	-60.97	223.5	178.5	-783	0	0	0	0	0	0	0	0	0	0	0	0	0	0	0	0	0	0	867	1226	0
1651053506829	-164.944	47.336	1074.576	-29.96	-12.88	-73.71	231	174	-781.5	0	0	0	0	0	0	0	0	0	0	0	0	0	0	0	0	0	0	869	1249	0
1651053506839	-191.296	23.424	1081.896	46.83	-29.19	-44.66	235.5	163.5	-774	0	0	0	0	0	0	0	0	0	0	0	0	0	0	0	0	0	0	869	1272	0
1651053506849	-184.952	-19.52	1081.896	93.94	-30.24	-8.26	234	159	-774	0	0	0	0	0	0	0	0	0	0	0	0	0	0	0	0	0	0	866	1292	0
1651053506859	-112.24	-174.216	1017.48	78.47	-27.44	7	231	151.5	-781.5	0	0	0	0	0	0	0	0	0	0	0	0	0	0	0	0	0	0	874	1347	0
1651053506869	-63.928	-276.696	1151.192	41.23	-31.36	-26.6	228	141	-793.5	0	0	0	0	0	0	0	0	0	0	0	0	0	0	0	0	0	0	875	1371	0
1651053506879	-492.392	208.376	3727.344	-22.19	-83.09	-45.22	222	136.5	-798	0	0	0	0	0	0	0	0	0	0	0	0	0	0	0	0	0	0	873	1395	0
1651053506889	-36.6	-196.176	1151.192	74.55	-52.22	-33.95	216	127.5	-802.5	0	0	0	0	0	0	0	0	0	0	0	0	0	0	0	0	0	0	875	1394	0
1651053506899	-101.016	-103.456	1028.216	69.23	-30.03	-4.2	214.5	123	-813	0	0	0	0	0	0	0	0	0	0	0	0	0	0	0	0	0	0	874	1383	0
1651053506909	-141.52	-60.024	1127.768	39.41	-10.92	15.4	214.5	117	-814.5	0	0	0	0	0	0	0	0	0	0	0	0	0	0	0	0	0	0	882	1350	0
1651053506919	-172.264	-26.352	1124.84	45.15	-13.44	14.7	217.5	114	-810	0	0	0	0	0	0	0	0	0	0	0	0	0	0	0	0	0	0	879	1311	0
1651053506929	-130.296	-24.4	1085.8	37.66	-13.58	31.43	216	115.5	-817.5	0	0	0	0	0	0	0	0	0	0	0	0	0	0	0	0	0	0	867	1278	0
1651053506939	-56.608	-26.84	1123.864	28.63	-41.93	49.98	211.5	120	-820.5	0	0	0	0	0	0	0	0	0	0	0	0	0	0	0	0	0	0	879	1273	0
1651053506949	3.416	-69.296	1117.032	22.19	-8.12	35.63	207	120	-823.5	0	0	0	0	0	0	0	0	0	0	0	0	0	0	0	0	0	0	867	1276	0
1651053506958	60.024	-120.536	1201.456	22.54	-23.66	37.87	205.5	112.5	-826.5	0	0	0	0	0	0	0	0	0	0	0	0	0	0	0	0	0	0	873	1277	0
1651053506968	29.28	-155.672	1202.92	16.31	-30.8	48.23	204	109.5	-828	0	0	0	0	0	0	0	0	0	0	0	0	0	0	0	0	0	0	871	1294	0
1651053506978	-8.784	-271.816	1168.272	14.14	-29.61	72.8	205.5	112.5	-834	0	0	0	0	0	0	0	0	0	0	0	0	0	0	0	0	0	0	873	1297	0
1651053506988	77.592	-224.968	1135.088	15.47	-16.24	92.12	210	115.5	-844.5	0	0	0	0	0	0	0	0	0	0	0	0	0	0	0	0	0	0	868	1282	0
1651053506998	765.672	321.104	1118.008	40.74	-9.73	113.26	220.5	124.5	-849	0	0	0	0	0	0	0	0	0	0	0	0	0	0	0	0	0	0	868	1251	0
1651053507008	-8.784	115.656	1080.92	51.31	-48.58	25.34	220.5	135	-850.5	0	0	0	0	0	0	0	0	0	0	0	0	0	0	0	0	0	0	877	1211	0
1651053507018	-503.616	-1324.432	700.768	77.07	-55.93	-16.66	213	130.5	-853.5	0	0	0	0	0	0	0	0	0	0	0	0	0	0	0	0	0	0	873	1172	0
1651053507028	-173.728	-291.336	1079.944	-14.84	-45.92	-14.77	213	123	-856.5	0	0	0	0	0	0	0	0	0	0	0	0	0	0	0	0	0	0	871	1151	0
1651053507038	174.216	-221.552	987.224	40.04	-19.25	-7.84	217.5	117	-858	0	0	0	0	0	0	0	0	0	0	0	0	0	0	0	0	0	0	875	1143	0
1651053507048	159.576	-183.488	912.56	36.89	-44.31	-21.98	222	115.5	-865.5	0	0	0	0	0	0	0	0	0	0	0	0	0	0	0	0	0	0	867	1123	0
1651053507058	-68.32	-497.272	1288.808	185.99	-17.01	-50.96	219	117	-877.5	0	0	0	0	0	0	0	0	0	0	0	0	0	0	0	0	0	0	873	1107	0
1651053507068	160.064	-209.84	1135.576	160.37	-73.08	-39.69	208.5	109.5	-886.5	0	0	0	0	0	0	0	0	0	0	0	0	0	0	0	0	0	0	866	1089	0
1651053507078	128.832	-505.568	1228.296	79.66	-2.8	20.72	196.5	97.5	-889.5	0	0	0	0	0	0	0	0	0	0	0	0	0	0	0	0	0	0	872	1055	0
1651053507088	138.592	-164.944	1129.72	4.48	29.47	77.21	190.5	97.5	-892.5	0	0	0	0	0	0	0	0	0	0	0	0	0	0	0	0	0	0	865	1022	0
1651053507098	173.728	-54.656	1119.96	3.15	-9.1	73.36	190.5	109.5	-892.5	0	0	0	0	0	0	0	0	0	0	0	0	0	0	0	0	0	0	865	977	0
1651053507108	72.712	-69.784	1035.048	0.07	-19.6	56.21	190.5	117	-891	0	0	0	0	0	0	0	0	0	0	0	0	0	0	0	0	0	0	867	942	0
1651053507118	-97.112	-26.84	1047.248	-5.18	-21.28	40.81	192	120	-897	0	0	0	0	0	0	0	0	0	0	0	0	0	0	0	0	0	0	874	922	0
1651053507128	-193.736	-118.096	958.432	-8.19	-15.96	37.17	192	115.5	-900	0	0	0	0	0	0	0	0	0	0	0	0	0	0	0	0	0	0	862	917	0
1651053507138	-148.84	-65.392	999.424	-20.23	52.08	36.75	193.5	117	-897	0	0	0	0	0	0	0	0	0	0	0	0	0	0	0	0	0	0	866	896	0
1651053507148	12.688	-120.048	1036.024	-27.65	51.94	36.05	195	126	-894	0	0	0	0	0	0	0	0	0	0	0	0	0	0	0	0	0	0	875	889	0
1651053507158	58.56	-87.84	967.704	-16.94	43.4	27.86	193.5	136.5	-894	0	0	0	0	0	0	0	0	0	0	0	0	0	0	0	0	0	0	874	874	0
1651053507168	55.144	-39.04	946.232	-9.24	55.09	27.79	196.5	138	-892.5	0	0	0	0	0	0	0	0	0	0	0	0	0	0	0	0	0	0	881	866	0
1651053507178	1.464	-24.4	932.08	6.16	62.02	29.26	195	142.5	-892.5	0	0	0	0	0	0	0	0	0	0	0	0	0	0	0	0	0	0	877	840	0
1651053507188	105.408	27.816	976.488	16.1	57.4	-6.51	193.5	157.5	-894	0	0	0	0	0	0	0	0	0	0	0	0	0	0	0	0	0	0	867	828	0
1651053507198	131.272	-210.816	871.08	28.42	50.68	-1.54	190.5	157.5	-892.5	0	0	0	0	0	0	0	0	0	0	0	0	0	0	0	0	0	0	861	826	0
1651053507208	42.944	-63.928	1058.472	28.77	43.68	17.64	186	159	-898.5	0	0	0	0	0	0	0	0	0	0	0	0	0	0	0	0	0	0	859	829	0
1651053507218	75.64	-48.8	1115.08	43.05	9.31	33.39	183	169.5	-900	0	0	0	0	0	0	0	0	0	0	0	0	0	0	0	0	0	0	873	832	0
1651053507228	107.848	-60.024	1086.776	33.32	2.94	22.47	183	172.5	-898.5	0	0	0	0	0	0	0	0	0	0	0	0	0	0	0	0	0	0	867	836	0
1651053507238	-36.6	-33.184	1043.832	17.85	-1.19	14.28	183	172.5	-898.5	0	0	0	0	0	0	0	0	0	0	0	0	0	0	0	0	0	0	863	845	0
1651053507248	-44.896	23.912	1002.84	11.9	-1.05	19.39	186	171	-901.5	0	0	0	0	0	0	0	0	0	0	0	0	0	0	0	0	0	0	861	849	0
1651053507258	-6.344	25.864	1017.968	12.53	-0.49	23.17	183	169.5	-898.5	0	0	0	0	0	0	0	0	0	0	0	0	0	0	0	0	0	0	871	854	0
1651053507268	93.208	-5.368	1038.952	15.33	-1.75	2.03	177	166.5	-898.5	0	0	0	0	0	0	0	0	0	0	0	0	0	0	0	0	0	0	871	840	0
1651053507278	-18.056	-22.448	1038.952	14.84	0.14	-1.12	171	171	-900	0	0	0	0	0	0	0	0	0	0	0	0	0	0	0	0	0	0	871	832	0
1651053507288	78.568	0	1027.24	14.84	-0.07	2.52	172.5	177	-901.5	0	0	0	0	0	0	0	0	0	0	0	0	0	0	0	0	0	0	871	835	0
1651053507298	-20.984	-7.32	980.88	17.85	-6.44	7.7	169.5	172.5	-897	0	0	0	0	0	0	0	0	0	0	0	0	0	0	0	0	0	0	867	814	0
1651053507308	-0.488	-44.408	1053.592	19.95	0.35	17.64	165	172.5	-891	0	0	0	0	0	0	0	0	0	0	0	0	0	0	0	0	0	0	870	807	0
1651053507318	33.184	2.44	1047.736	18.27	15.75	20.86	163.5	175.5	-895.5	0	0	0	0	0	0	0	0	0	0	0	0	0	0	0	0	0	0	872	804	0
1651053507328	-21.472	-23.912	1025.288	10.71	4.97	18.27	166.5	174	-897	0	0	0	0	0	0	0	0	0	0	0	0	0	0	0	0	0	0	870	809	0
1651053507338	-25.864	-81.496	1067.744	2.94	0.28	11.2	168	172.5	-894	0	0	0	0	0	0	0	0	0	0	0	0	0	0	0	0	0	0	852	941	0
1651053507348	-58.072	-12.2	1018.456	-0.14	-4.13	-1.19	166.5	174	-892.5	0	0	0	0	0	0	0	0	0	0	0	0	0	0	0	0	0	0	941	7790	0
1651053507358	-37.088	-31.72	1024.312	-0.21	0.14	-2.38	165	175.5	-897	0	0	0	0	0	0	0	0	0	0	0	0	0	0	0	0	0	0	1201	11464	0
1651053507368	1.464	-17.568	998.936	-2.03	-6.72	-5.39	163.5	178.5	-895.5	0	0	0	0	0	0	0	0	0	0	0	0	0	0	0	0	0	0	854	1535	0
1651053507379	-45.872	-26.84	1047.248	0	-3.85	-3.43	165	178.5	-894	0	0	0	0	0	0	0	0	0	0	0	0	0	0	0	0	0	0	848	903	0
1651053507389	-40.992	17.08	972.584	-0.84	2.94	-1.75	162	175.5	-898.5	0	0	0	0	0	0	0	0	0	0	0	0	0	0	0	0	0	0	859	837	0
1651053507399	-121.024	33.672	1025.288	0.42	-2.45	3.22	171	177	-901.5	0	0	0	0	0	0	0	0	0	0	0	0	0	0	0	0	0	0	861	824	0
1651053507409	-7.32	-10.736	1012.112	-0.63	-2.73	0.35	169.5	171	-900	0	0	0	0	0	0	0	0	0	0	0	0	0	0	0	0	0	0	866	824	0
1651053507419	-26.84	-21.96	1028.216	-0.91	-2.8	-0.56	162	174	-904.5	0	0	0	0	0	0	0	0	0	0	0	0	0	0	0	0	0	0	874	811	0
1651053507429	-33.672	-8.784	1020.896	-1.54	-2.8	-1.96	163.5	172.5	-898.5	0	0	0	0	0	0	0	0	0	0	0	0	0	0	0	0	0	0	870	806	0
1651053507439	-15.616	-24.4	1008.696	-0.77	-5.53	-4.06	165	168	-898.5	0	0	0	0	0	0	0	0	0	0	0	0	0	0	0	0	0	0	863	806	0
1651053507449	-12.688	-0.976	1018.456	-0.42	-1.12	-1.33	163.5	168	-901.5	0	0	0	0	0	0	0	0	0	0	0	0	0	0	0	0	0	0	862	817	0
1651053507459	-22.936	-17.08	1019.92	0.28	-0.98	-2.45	165	171	-900	0	0	0	0	0	0	0	0	0	0	0	0	0	0	0	0	0	0	859	825	0
1651053507469	-12.2	-7.808	1020.408	0.98	-0.84	-3.36	163.5	165	-904.5	0	0	0	0	0	0	0	0	0	0	0	0	0	0	0	0	0	0	855	843	0
1651053507479	-11.224	-22.448	1019.92	1.75	-0.42	-2.45	166.5	165	-903	0	0	0	0	0	0	0	0	0	0	0	0	0	0	0	0	0	0	847	856	0
1651053507489	4.88	19.032	1018.456	3.15	0	-1.26	166.5	166.5	-895.5	0	0	0	0	0	0	0	0	0	0	0	0	0	0	0	0	0	0	853	876	0
1651053507499	-16.104	-7.32	1011.136	2.17	-0.14	1.12	168	162	-898.5	0	0	0	0	0	0	0	0	0	0	0	0	0	0	0	0	0	0	870	910	0
1651053507509	-22.448	-13.664	1027.24	1.68	-0.28	1.12	165	163.5	-903	0	0	0	0	0	0	0	0	0	0	0	0	0	0	0	0	0	0	861	925	0
1651053507519	-18.544	-13.176	1023.824	1.26	-0.35	0.91	165	166.5	-904.5	0	0	0	0	0	0	0	0	0	0	0	0	0	0	0	0	0	0	866	947	0
1651053507529	-24.888	-9.76	1017.968	0.84	-0.28	0.84	163.5	169.5	-901.5	0	0	0	0	0	0	0	0	0	0	0	0	0	0	0	0	0	0	874	1054	0
1651053507539	-21.96	-11.712	1024.312	0.42	-0.28	0.49	160.5	172.5	-897	0	0	0	0	0	0	0	0	0	0	0	0	0	0	0	0	0	0	875	1592	0
1651053507549	-26.84	-12.2	1020.896	0.56	-0.07	0.42	166.5	166.5	-901.5	0	0	0	0	0	0	0	0	0	0	0	0	0	0	0	0	0	0	885	2675	0
1651053507559	-15.616	-11.712	1019.92	0.21	0	0.49	163.5	166.5	-903	0	0	0	0	0	0	0	0	0	0	0	0	0	0	0	0	0	0	899	2760	0
1651053507569	-14.64	-8.784	1017.48	0.35	-0.07	0.28	159	172.5	-904.5	0	0	0	0	0	0	0	0	0	0	0	0	0	0	0	0	0	0	919	1949	0
1651053507579	-22.448	-14.152	1008.696	-0.14	0	0.28	159	171	-904.5	0	0	0	0	0	0	0	0	0	0	0	0	0	0	0	0	0	0	948	1397	0
1651053507589	19.52	-14.152	1037.488	-0.84	-1.05	0.49	162	169.5	-898.5	0	0	0	0	0	0	0	0	0	0	0	0	0	0	0	0	0	0	975	1170	0
1651053507599	-91.256	-130.296	1040.416	-9.45	1.61	-28.63	163.5	169.5	-898.5	0	0	0	0	0	0	0	0	0	0	0	0	0	0	0	0	0	0	1008	1107	0
1651053507609	-109.312	33.184	875.472	9.17	-3.01	-54.04	163.5	165	-901.5	0	0	0	0	0	0	0	0	0	0	0	0	0	0	0	0	0	0	1030	1119	0
1651053507619	5.856	268.4	843.752	-10.99	5.95	-38.78	166.5	162	-906	0	0	0	0	0	0	0	0	0	0	0	0	0	0	0	0	0	0	1066	1111	0
1651053507629	-31.72	-420.656	1120.936	-7.07	2.17	-140.21	165	159	-904.5	0	0	0	0	0	0	0	0	0	0	0	0	0	0	0	0	0	0	1090	1121	0
1651053507639	23.424	-446.032	851.56	18.13	1.68	-216.79	163.5	153	-901.5	0	0	0	0	0	0	0	0	0	0	0	0	0	0	0	0	0	0	1092	1100	0
1651053507649	118.096	18.544	807.152	-2.59	5.04	-149.24	157.5	145.5	-901.5	0	0	0	0	0	0	0	0	0	0	0	0	0	0	0	0	0	0	1088	1080	0
1651053507659	98.088	183.488	1000.4	-5.11	3.99	69.37	159	139.5	-900	0	0	0	0	0	0	0	0	0	0	0	0	0	0	0	0	0	0	1088	1060	0
1651053507669	62.464	46.36	977.952	-3.36	-1.89	70.77	163.5	138	-898.5	0	0	0	0	0	0	0	0	0	0	0	0	0	0	0	0	0	0	1080	1041	0
1651053507679	36.112	-103.456	1061.4	-6.86	-2.8	60.97	160.5	142.5	-898.5	0	0	0	0	0	0	0	0	0	0	0	0	0	0	0	0	0	0	1057	1016	0
1651053507689	-101.992	-103.456	1038.952	-11.13	0.77	12.67	157.5	148.5	-901.5	0	0	0	0	0	0	0	0	0	0	0	0	0	0	0	0	0	0	1054	996	0
1651053507699	-9.76	-5.856	1120.448	-25.55	-1.96	1.75	160.5	150	-900	0	0	0	0	0	0	0	0	0	0	0	0	0	0	0	0	0	0	1035	968	0
1651053507709	-18.544	18.544	1243.424	-61.88	-2.94	3.57	163.5	144	-895.5	0	0	0	0	0	0	0	0	0	0	0	0	0	0	0	0	0	0	1024	956	0
1651053507719	-64.904	-107.36	1191.208	-109.76	-9.03	50.54	169.5	148.5	-898.5	0	0	0	0	0	0	0	0	0	0	0	0	0	0	0	0	0	0	1002	951	0
1651053507729	-129.32	-340.136	351.848	-127.61	14.21	121.1	177	147	-898.5	0	0	0	0	0	0	0	0	0	0	0	0	0	0	0	0	0	0	985	961	0
1651053507739	-318.664	-280.112	110.776	144.76	83.16	59.22	187.5	154.5	-897	0	0	0	0	0	0	0	0	0	0	0	0	0	0	0	0	0	0	973	979	0
1651053507749	-538.264	745.176	1630.896	141.33	-202.58	71.12	186	168	-903	0	0	0	0	0	0	0	0	0	0	0	0	0	0	0	0	0	0	964	1021	0
1651053507759	-21.472	-18.544	1050.176	-8.26	9.45	142.8	168	168	-910.5	0	0	0	0	0	0	0	0	0	0	0	0	0	0	0	0	0	0	960	1072	0
1651053507769	-50.264	-19.032	708.576	6.51	8.05	111.86	160.5	165	-912	0	0	0	0	0	0	0	0	0	0	0	0	0	0	0	0	0	0	969	1116	0
1651053507779	21.472	117.12	1043.344	11.27	5.11	127.19	160.5	169.5	-907.5	0	0	0	0	0	0	0	0	0	0	0	0	0	0	0	0	0	0	976	1182	0
1651053507789	484.584	117.12	996.008	-1.68	-4.62	128.8	156	181.5	-906	0	0	0	0	0	0	0	0	0	0	0	0	0	0	0	0	0	0	996	1233	0
1651053507799	1175.104	3.904	1122.888	2.73	-5.46	86.45	156	193.5	-904.5	0	0	0	0	0	0	0	0	0	0	0	0	0	0	0	0	0	0	1020	1261	0
1651053507809	-337.696	-325.496	1244.4	5.88	-14.42	-6.37	151.5	192	-901.5	0	0	0	0	0	0	0	0	0	0	0	0	0	0	0	0	0	0	1056	1273	0
1651053507819	-580.232	41.968	970.144	-16.17	-13.79	6.23	151.5	190.5	-906	0	0	0	0	0	0	0	0	0	0	0	0	0	0	0	0	0	0	1114	1291	0
1651053507829	-41.968	-88.816	990.152	-3.92	-0.91	18.27	151.5	187.5	-904.5	0	0	0	0	0	0	0	0	0	0	0	0	0	0	0	0	0	0	1191	1322	0
1651053507839	-20.496	-92.72	1012.112	2.1	0.28	5.46	151.5	186	-897	0	0	0	0	0	0	0	0	0	0	0	0	0	0	0	0	0	0	1290	1389	0
1651053507849	115.168	55.144	1044.808	-0.98	0.98	-8.05	153	187.5	-897	0	0	0	0	0	0	0	0	0	0	0	0	0	0	0	0	0	0	1452	1515	0
1651053507859	-33.184	-62.464	1052.616	-7.28	5.95	-0.7	151.5	187.5	-895.5	0	0	0	0	0	0	0	0	0	0	0	0	0	0	0	0	0	0	1668	1689	0
1651053507869	-52.216	-21.96	999.912	-10.5	-1.82	-3.08	153	189	-895.5	0	0	0	0	0	0	0	0	0	0	0	0	0	0	0	0	0	0	1944	1959	0
1651053507879	-32.208	-72.224	1031.632	-8.61	-1.19	-13.02	156	184.5	-895.5	0	0	0	0	0	0	0	0	0	0	0	0	0	0	0	0	0	0	2282	2306	0
1651053507889	-8.784	-27.816	1032.608	-6.3	0.35	-22.89	157.5	183	-892.5	0	0	0	0	0	0	0	0	0	0	0	0	0	0	0	0	0	0	2647	2691	0
1651053507899	20.008	11.712	998.936	-4.41	2.17	-22.75	157.5	175.5	-892.5	0	0	0	0	0	0	0	0	0	0	0	0	0	0	0	0	0	0	2947	3022	0
1651053507909	6.344	40.992	1036.024	0.84	7.35	-21.91	153	175.5	-894	0	0	0	0	0	0	0	0	0	0	0	0	0	0	0	0	0	0	3116	3192	0
1651053507919	7.32	19.52	1014.064	2.66	12.04	-22.05	154.5	180	-892.5	0	0	0	0	0	0	0	0	0	0	0	0	0	0	0	0	0	0	3079	2961	0
1651053507929	-28.792	34.16	999.424	0.98	10.22	-22.12	159	178.5	-891	0	0	0	0	0	0	0	0	0	0	0	0	0	0	0	0	0	0	2570	2388	0
1651053507939	38.064	-15.616	1013.576	4.83	11.34	-27.79	160.5	178.5	-892.5	0	0	0	0	0	0	0	0	0	0	0	0	0	0	0	0	0	0	2161	2053	0
1651053507949	-1.952	-27.816	1020.408	8.05	17.57	-35.21	160.5	175.5	-894	0	0	0	0	0	0	0	0	0	0	0	0	0	0	0	0	0	0	1651	1519	0
1651053507959	17.08	-109.8	1064.328	10.92	31.71	-54.25	157.5	178.5	-900	0	0	0	0	0	0	0	0	0	0	0	0	0	0	0	0	0	0	1416	1270	0
1651053507969	28.792	-128.344	1043.832	11.76	41.37	-81.27	151.5	174	-895.5	0	0	0	0	0	0	0	0	0	0	0	0	0	0	0	0	0	0	1230	1108	0
1651053507979	-60.024	-52.704	1006.256	22.4	60.48	-100.31	156	175.5	-894	0	0	0	0	0	0	0	0	0	0	0	0	0	0	0	0	0	0	1110	1012	0
1651053507989	-190.32	-857.416	941.84	27.72	65.17	-154	156	177	-900	0	0	0	0	0	0	0	0	0	0	0	0	0	0	0	0	0	0	1101	982	0
1651053507999	40.992	-662.704	1531.344	0.91	69.37	-77.63	151.5	178.5	-898.5	0	0	0	0	0	0	0	0	0	0	0	0	0	0	0	0	0	0	1105	977	0
1651053508009	-246.928	702.72	887.672	20.37	13.72	-258.23	151.5	186	-897	0	0	0	0	0	0	0	0	0	0	0	0	0	0	0	0	0	0	1096	946	0
1651053508019	-525.576	407.48	1371.28	18.69	-4.62	-164.85	150	187.5	-900	0	0	0	0	0	0	0	0	0	0	0	0	0	0	0	0	0	0	1051	913	0
1651053508029	-299.144	71.248	1072.624	6.93	11.27	-82.6	151.5	177	-906	0	0	0	0	0	0	0	0	0	0	0	0	0	0	0	0	0	0	993	916	0
1651053508039	-158.6	81.984	1007.72	1.96	12.32	-23.03	156	171	-906	0	0	0	0	0	0	0	0	0	0	0	0	0	0	0	0	0	0	951	952	0
1651053508049	45.384	19.52	1047.736	2.52	11.55	-31.64	150	163.5	-900	0	0	0	0	0	0	0	0	0	0	0	0	0	0	0	0	0	0	933	974	0
1651053508059	-216.672	233.264	969.168	1.96	-1.96	-5.39	148.5	160.5	-895.5	0	0	0	0	0	0	0	0	0	0	0	0	0	0	0	0	0	0	930	995	0
1651053508069	-168.848	-121.024	1042.856	-2.38	-1.82	37.94	147	162	-897	0	0	0	0	0	0	0	0	0	0	0	0	0	0	0	0	0	0	929	1007	0
1651053508079	-80.52	-63.44	1035.048	-3.08	1.68	47.46	147	166.5	-901.5	0	0	0	0	0	0	0	0	0	0	0	0	0	0	0	0	0	0	909	1011	0
1651053508089	-84.424	-23.424	1017.48	-4.27	1.4	52.71	147	160.5	-897	0	0	0	0	0	0	0	0	0	0	0	0	0	0	0	0	0	0	918	1024	0
1651053508099	-28.792	-50.264	1015.528	-4.13	1.33	43.68	147	160.5	-897	0	0	0	0	0	0	0	0	0	0	0	0	0	0	0	0	0	0	910	1035	0
1651053508109	-16.592	-10.736	1108.248	-4.9	0.42	30.66	147	166.5	-895.5	0	0	0	0	0	0	0	0	0	0	0	0	0	0	0	0	0	0	908	1046	0
1651053508119	-22.936	38.064	1052.128	-1.19	-2.73	27.09	145.5	163.5	-891	0	0	0	0	0	0	0	0	0	0	0	0	0	0	0	0	0	0	915	1051	0
1651053508129	-96.136	-29.28	1042.856	-4.41	-2.03	30.1	144	165	-891	0	0	0	0	0	0	0	0	0	0	0	0	0	0	0	0	0	0	908	1050	0
1651053508139	-37.088	-76.616	985.272	-3.36	-1.4	28.91	145.5	168	-894	0	0	0	0	0	0	0	0	0	0	0	0	0	0	0	0	0	0	908	1044	0
1651053508149	-31.72	-42.944	1005.28	-1.61	-1.12	21.49	150	169.5	-891	0	0	0	0	0	0	0	0	0	0	0	0	0	0	0	0	0	0	894	1050	0
1651053508159	-115.168	91.256	994.544	-1.61	-3.64	27.02	147	169.5	-886.5	0	0	0	0	0	0	0	0	0	0	0	0	0	0	0	0	0	0	892	1049	0
1651053508169	11.224	70.272	1020.896	6.65	-13.02	-5.25	141	171	-886.5	0	0	0	0	0	0	0	0	0	0	0	0	0	0	0	0	0	0	883	1075	0
1651053508179	-40.504	108.336	1015.528	3.43	-30.73	-9.1	139.5	165	-889.5	0	0	0	0	0	0	0	0	0	0	0	0	0	0	0	0	0	0	879	1104	0
1651053508189	-107.36	19.52	928.664	6.44	-41.23	-19.88	147	159	-891	0	0	0	0	0	0	0	0	0	0	0	0	0	0	0	0	0	0	873	1132	0
1651053508199	-63.44	-88.328	990.64	3.01	-48.23	-27.79	145.5	153	-889.5	0	0	0	0	0	0	0	0	0	0	0	0	0	0	0	0	0	0	871	1147	0
1651053508209	2.928	-55.632	966.24	9.8	-36.61	-39.41	139.5	144	-892.5	0	0	0	0	0	0	0	0	0	0	0	0	0	0	0	0	0	0	878	1162	0
1651053508220	-59.048	141.032	1016.504	1.75	-28.07	-20.86	133.5	141	-892.5	0	0	0	0	0	0	0	0	0	0	0	0	0	0	0	0	0	0	871	1140	0
1651053508230	-54.656	10.736	976.976	6.51	-36.12	-18.62	132	136.5	-886.5	0	0	0	0	0	0	0	0	0	0	0	0	0	0	0	0	0	0	872	1132	0
1651053508240	-15.128	-60.024	1004.792	3.5	-37.17	-14.84	130.5	130.5	-883.5	0	0	0	0	0	0	0	0	0	0	0	0	0	0	0	0	0	0	862	1164	0
1651053508250	-103.456	-20.984	976.976	1.4	-38.78	-8.05	132	121.5	-880.5	0	0	0	0	0	0	0	0	0	0	0	0	0	0	0	0	0	0	870	1252	0
1651053508260	249.856	-552.416	209.84	12.39	35.28	-27.86	130.5	109.5	-879	0	0	0	0	0	0	0	0	0	0	0	0	0	0	0	0	0	0	871	1355	0
1651053508270	108.336	59.536	1036.512	-3.92	2.24	37.45	130.5	105	-882	0	0	0	0	0	0	0	0	0	0	0	0	0	0	0	0	0	0	875	1471	0
1651053508280	23.424	136.152	1024.312	-10.92	6.51	27.16	135	112.5	-880.5	0	0	0	0	0	0	0	0	0	0	0	0	0	0	0	0	0	0	877	1544	0
1651053508290	-62.464	117.608	1027.728	-10.01	7.49	18.41	130.5	120	-879	0	0	0	0	0	0	0	0	0	0	0	0	0	0	0	0	0	0	897	1801	0
1651053508300	-93.696	-23.424	1018.944	-1.26	-0.49	16.73	129	115.5	-879	0	0	0	0	0	0	0	0	0	0	0	0	0	0	0	0	0	0	938	2349	0
1651053508310	-9.272	-73.2	1133.136	-2.17	8.54	50.75	133.5	109.5	-877.5	0	0	0	0	0	0	0	0	0	0	0	0	0	0	0	0	0	0	994	2942	0
1651053508320	-154.696	-60.512	971.12	-10.01	30.31	97.79	138	118.5	-879	0	0	0	0	0	0	0	0	0	0	0	0	0	0	0	0	0	0	1012	3164	0
1651053508330	-146.888	328.424	1043.832	-1.26	4.83	70.98	142.5	132	-883.5	0	0	0	0	0	0	0	0	0	0	0	0	0	0	0	0	0	0	1005	3035	0
1651053508340	-148.352	33.672	988.2	-2.31	-0.35	82.6	142.5	138	-888	0	0	0	0	0	0	0	0	0	0	0	0	0	0	0	0	0	0	981	3068	0
1651053508350	107.36	-49.776	1129.72	-1.68	3.71	64.61	141	138	-886.5	0	0	0	0	0	0	0	0	0	0	0	0	0	0	0	0	0	0	989	3387	0
1651053508360	-14.152	-28.792	1023.336	-0.91	1.33	63.07	133.5	145.5	-885	0	0	0	0	0	0	0	0	0	0	0	0	0	0	0	0	0	0	1005	3801	0
1651053508370	44.408	-68.32	1019.92	-1.19	-0.63	45.5	136.5	147	-885	0	0	0	0	0	0	0	0	0	0	0	0	0	0	0	0	0	0	984	4108	0
1651053508380	27.328	-35.624	1030.656	-0.56	-1.05	29.75	142.5	145.5	-888	0	0	0	0	0	0	0	0	0	0	0	0	0	0	0	0	0	0	971	4369	0
1651053508390	-9.272	-37.576	1017.968	-0.28	-0.84	21.91	135	145.5	-891	0	0	0	0	0	0	0	0	0	0	0	0	0	0	0	0	0	0	972	4956	0
1651053508400	12.2	-32.208	1017.48	0	-0.56	14	138	144	-891	0	0	0	0	0	0	0	0	0	0	0	0	0	0	0	0	0	0	1004	6098	0
1651053508410	-4.88	-29.28	1027.728	0.14	-0.91	5.81	141	147	-889.5	0	0	0	0	0	0	0	0	0	0	0	0	0	0	0	0	0	0	1099	8207	0
1651053508420	-25.376	-11.224	1028.704	0.21	-0.98	3.08	138	150	-892.5	0	0	0	0	0	0	0	0	0	0	0	0	0	0	0	0	0	0	1308	12000	0
1651053508430	-11.712	-13.176	1025.776	0.35	-0.7	2.73	138	151.5	-895.5	0	0	0	0	0	0	0	0	0	0	0	0	0	0	0	0	0	0	1672	16918	0
1651053508440	-31.72	1.464	1014.552	0.42	0.21	2.52	141	153	-894	0	0	0	0	0	0	0	0	0	0	0	0	0	0	0	0	0	0	2096	21551	0
1651053508450	-16.592	-0.976	1021.872	0.35	-0.77	4.06	138	151.5	-892.5	0	0	0	0	0	0	0	0	0	0	0	0	0	0	0	0	0	0	2381	23756	0
1651053508460	-15.616	-5.856	1025.288	0.14	-1.19	4.27	141	150	-891	0	0	0	0	0	0	0	0	0	0	0	0	0	0	0	0	0	0	2232	22222	0
1651053508470	-58.56	-2.928	1059.936	0.63	-0.63	3.92	138	150	-888	0	0	0	0	0	0	0	0	0	0	0	0	0	0	0	0	0	0	2039	20400	0
1651053508480	73.688	30.256	651.968	15.96	-0.07	1.75	136.5	157.5	-895.5	0	0	0	0	0	0	0	0	0	0	0	0	0	0	0	0	0	0	1994	20043	0
1651053508490	-52.704	-4.88	1099.952	-4.55	-1.12	6.44	135	154.5	-891	0	0	0	0	0	0	0	0	0	0	0	0	0	0	0	0	0	0	2067	21082	0
1651053508500	19.52	-24.4	1008.208	0.63	-0.35	2.31	136.5	153	-885	0	0	0	0	0	0	0	0	0	0	0	0	0	0	0	0	0	0	2804	27473	0
1651053508510	-24.4	-33.184	1016.504	1.89	-0.49	-0.77	139.5	154.5	-883.5	0	0	0	0	0	0	0	0	0	0	0	0	0	0	0	0	0	0	3314	30837	0
1651053508520	-75.64	29.768	1019.432	0.14	-0.56	-0.35	141	154.5	-885	0	0	0	0	0	0	0	0	0	0	0	0	0	0	0	0	0	0	3808	33752	0
1651053508530	-33.184	-2.44	1018.456	0	-0.42	4.2	135	153	-888	0	0	0	0	0	0	0	0	0	0	0	0	0	0	0	0	0	0	4308	36284	0
1651053508540	-10.736	25.864	1023.824	-0.42	-1.26	5.32	133.5	147	-886.5	0	0	0	0	0	0	0	0	0	0	0	0	0	0	0	0	0	0	4577	37094	0
1651053508550	-33.672	-0.976	1018.944	-0.77	-1.68	6.44	139.5	145.5	-883.5	0	0	0	0	0	0	0	0	0	0	0	0	0	0	0	0	0	0	4242	34919	0
1651053508560	-28.304	-24.4	1024.312	-0.91	-1.05	11.13	141	148.5	-888	0	0	0	0	0	0	0	0	0	0	0	0	0	0	0	0	0	0	3851	32138	0
1651053508570	-21.472	4.392	1022.848	-0.14	-0.28	7.49	139.5	150	-889.5	0	0	0	0	0	0	0	0	0	0	0	0	0	0	0	0	0	0	3591	30658	0
1651053508580	-39.528	-16.104	1021.384	-0.35	-0.35	6.79	138	156	-883.5	0	0	0	0	0	0	0	0	0	0	0	0	0	0	0	0	0	0	3480	29293	0
1651053508590	-11.224	-28.304	1021.384	-0.56	-0.28	5.53	145.5	156	-883.5	0	0	0	0	0	0	0	0	0	0	0	0	0	0	0	0	0	0	3111	26324	0
1651053508600	-18.544	-10.736	1020.896	-0.77	-0.14	2.59	145.5	151.5	-883.5	0	0	0	0	0	0	0	0	0	0	0	0	0	0	0	0	0	0	2633	23244	0
1651053508610	-19.52	-7.808	1022.848	-0.07	-0.14	1.33	141	151.5	-886.5	0	0	0	0	0	0	0	0	0	0	0	0	0	0	0	0	0	0	2038	18844	0
1651053508620	-21.96	-5.856	1011.624	0.63	0.21	0.63	141	151.5	-889.5	0	0	0	0	0	0	0	0	0	0	0	0	0	0	0	0	0	0	1568	14869	0
1651053508630	-24.4	-7.32	1026.752	0.35	-0.35	0.63	142.5	160.5	-889.5	0	0	0	0	0	0	0	0	0	0	0	0	0	0	0	0	0	0	1260	11584	0
1651053508640	-26.352	-7.32	1021.872	0.35	-0.42	2.45	144	157.5	-885	0	0	0	0	0	0	0	0	0	0	0	0	0	0	0	0	0	0	1001	7206	0
1651053508650	-25.864	-3.416	1023.824	0	-0.56	3.15	139.5	153	-885	0	0	0	0	0	0	0	0	0	0	0	0	0	0	0	0	0	0	886	1673	0
1651053508660	-27.328	-6.344	1015.528	0.07	-0.56	3.36	133.5	153	-892.5	0	0	0	0	0	0	0	0	0	0	0	0	0	0	0	0	0	0	851	858	0
1651053508670	-29.768	-1.952	1020.896	-0.07	-0.7	3.57	141	159	-891	0	0	0	0	0	0	0	0	0	0	0	0	0	0	0	0	0	0	842	788	0
1651053508680	-57.096	124.44	1017.48	-0.28	-0.98	0	144	160.5	-882	0	0	0	0	0	0	0	0	0	0	0	0	0	0	0	0	0	0	854	769	0
1651053508690	-6.832	-11.224	1028.216	0.42	-0.21	1.75	142.5	154.5	-885	0	0	0	0	0	0	0	0	0	0	0	0	0	0	0	0	0	0	857	765	0
1651053508700	-16.104	0.976	1013.088	0.14	-0.42	2.17	139.5	156	-882	0	0	0	0	0	0	0	0	0	0	0	0	0	0	0	0	0	0	848	764	0
1651053508710	-16.592	-3.416	1018.944	0.14	-0.35	1.82	139.5	154.5	-885	0	0	0	0	0	0	0	0	0	0	0	0	0	0	0	0	0	0	855	763	0
1651053508720	-48.8	7.32	1030.168	1.12	1.33	4.34	144	153	-886.5	0	0	0	0	0	0	0	0	0	0	0	0	0	0	0	0	0	0	869	764	0
1651053508730	-18.544	0.488	1019.92	0.49	0	2.66	144	153	-888	0	0	0	0	0	0	0	0	0	0	0	0	0	0	0	0	0	0	851	758	0
1651053508740	-29.28	0	1021.872	0.49	0	2.38	135	153	-885	0	0	0	0	0	0	0	0	0	0	0	0	0	0	0	0	0	0	848	760	0
1651053508750	-42.944	22.448	1017.968	1.47	2.31	4.48	133.5	151.5	-891	0	0	0	0	0	0	0	0	0	0	0	0	0	0	0	0	0	0	860	765	0
1651053508760	11.712	-8.296	1027.24	0.21	-0.21	6.09	135	151.5	-895.5	0	0	0	0	0	0	0	0	0	0	0	0	0	0	0	0	0	0	850	750	0
1651053508770	-10.736	-10.248	1021.384	0.28	-0.28	2.66	133.5	153	-891	0	0	0	0	0	0	0	0	0	0	0	0	0	0	0	0	0	0	843	752	0
1651053508780	-27.816	-4.88	1024.8	0.21	-0.42	1.89	136.5	154.5	-892.5	0	0	0	0	0	0	0	0	0	0	0	0	0	0	0	0	0	0	847	735	0
1651053508790	-24.4	-7.808	1019.92	0.28	-0.35	1.75	139.5	160.5	-889.5	0	0	0	0	0	0	0	0	0	0	0	0	0	0	0	0	0	0	849	738	0
1651053508800	-27.816	-9.272	1022.848	0.28	-0.28	1.47	142.5	156	-889.5	0	0	0	0	0	0	0	0	0	0	0	0	0	0	0	0	0	0	845	746	0
1651053508810	-25.864	-15.616	1016.504	0.35	-0.14	1.12	139.5	156	-886.5	0	0	0	0	0	0	0	0	0	0	0	0	0	0	0	0	0	0	856	746	0
1651053508820	-19.032	-6.832	1028.704	0.35	-0.21	0.77	139.5	157.5	-879	0	0	0	0	0	0	0	0	0	0	0	0	0	0	0	0	0	0	852	746	0
1651053508830	-25.864	-4.392	1021.384	0.35	-0.14	0.56	144	154.5	-885	0	0	0	0	0	0	0	0	0	0	0	0	0	0	0	0	0	0	853	746	0
1651053508840	-24.4	-9.272	1022.848	0.42	-0.21	0.42	144	153	-885	0	0	0	0	0	0	0	0	0	0	0	0	0	0	0	0	0	0	848	749	0
1651053508850	-23.424	-2.928	1021.384	0.49	-0.21	0.42	141	159	-885	0	0	0	0	0	0	0	0	0	0	0	0	0	0	0	0	0	0	854	745	0
1651053508860	-34.648	1.952	1022.848	0.7	-0.35	0.28	135	156	-888	0	0	0	0	0	0	0	0	0	0	0	0	0	0	0	0	0	0	841	750	0
1651053508870	-27.328	2.44	1025.776	1.33	-0.21	0.21	133.5	156	-888	0	0	0	0	0	0	0	0	0	0	0	0	0	0	0	0	0	0	838	752	0
1651053508880	-10.248	-4.392	1021.872	0.7	-0.35	0.14	138	156	-888	0	0	0	0	0	0	0	0	0	0	0	0	0	0	0	0	0	0	839	778	0
1651053508890	-13.664	-3.904	1016.504	0.42	-0.35	0.28	139.5	154.5	-888	0	0	0	0	0	0	0	0	0	0	0	0	0	0	0	0	0	0	847	791	0
1651053508900	-22.936	-6.832	1029.68	0.42	-0.28	0.35	136.5	157.5	-886.5	0	0	0	0	0	0	0	0	0	0	0	0	0	0	0	0	0	0	860	816	0
1651053508910	-21.472	-6.344	1024.8	0.42	-0.21	0.35	138	159	-894	0	0	0	0	0	0	0	0	0	0	0	0	0	0	0	0	0	0	866	854	0
1651053508920	-21.472	-17.08	1026.752	0.49	-0.14	0.35	141	156	-892.5	0	0	0	0	0	0	0	0	0	0	0	0	0	0	0	0	0	0	872	899	0
1651053508930	-22.936	-12.688	1020.408	0.56	0	0.42	138	150	-886.5	0	0	0	0	0	0	0	0	0	0	0	0	0	0	0	0	0	0	888	946	0
1651053508940	-17.08	-10.248	1023.824	0.35	-0.14	0.49	142.5	153	-888	0	0	0	0	0	0	0	0	0	0	0	0	0	0	0	0	0	0	890	1016	0
1651053508950	-29.28	0	1018.944	0.56	-0.07	0.42	144	154.5	-886.5	0	0	0	0	0	0	0	0	0	0	0	0	0	0	0	0	0	0	918	1100	0
1651053508960	-16.592	-7.808	1025.776	0.35	-0.28	1.54	136.5	154.5	-888	0	0	0	0	0	0	0	0	0	0	0	0	0	0	0	0	0	0	953	1232	0
1651053508970	-20.984	-0.976	1022.36	0.35	-0.21	1.33	139.5	159	-889.5	0	0	0	0	0	0	0	0	0	0	0	0	0	0	0	0	0	0	1023	1392	0
1651053508980	-24.888	2.44	1021.384	0.49	-0.14	0.98	142.5	156	-883.5	0	0	0	0	0	0	0	0	0	0	0	0	0	0	0	0	0	0	1143	1617	0
1651053508990	-22.448	-0.976	1020.408	0.49	-0.14	0.84	136.5	151.5	-879	0	0	0	0	0	0	0	0	0	0	0	0	0	0	0	0	0	0	1321	1935	0
1651053509000	-20.008	-1.952	1024.8	0.42	-0.21	0.77	135	151.5	-886.5	0	0	0	0	0	0	0	0	0	0	0	0	0	0	0	0	0	0	1576	2309	0
1651053509010	-20.008	-11.712	1022.36	0.49	-0.35	0.49	136.5	156	-888	0	0	0	0	0	0	0	0	0	0	0	0	0	0	0	0	0	0	1833	2616	0
1651053509020	-27.328	-7.32	1016.992	0.49	-0.21	0.42	141	157.5	-883.5	0	0	0	0	0	0	0	0	0	0	0	0	0	0	0	0	0	0	2121	2951	0
1651053509030	-25.864	-8.296	1022.36	0.21	-0.35	0.42	139.5	150	-888	0	0	0	0	0	0	0	0	0	0	0	0	0	0	0	0	0	0	2362	3175	0
1651053509040	-14.64	-3.904	1022.36	0.56	-0.14	0.28	139.5	153	-891	0	0	0	0	0	0	0	0	0	0	0	0	0	0	0	0	0	0	2483	3228	0
1651053509050	-19.032	-3.904	1020.896	0.42	-0.28	0.42	142.5	154.5	-888	0	0	0	0	0	0	0	0	0	0	0	0	0	0	0	0	0	0	2490	3160	0
1651053509061	-19.032	-4.88	1020.408	0.42	-0.21	0.35	142.5	154.5	-888	0	0	0	0	0	0	0	0	0	0	0	0	0	0	0	0	0	0	2423	3048	0
1651053509071	-22.448	2.928	1027.728	0.35	-0.14	0.35	142.5	153	-882	0	0	0	0	0	0	0	0	0	0	0	0	0	0	0	0	0	0	2379	3003	0
1651053509081	-13.176	-5.856	1020.896	0.35	-0.28	1.47	144	159	-883.5	0	0	0	0	0	0	0	0	0	0	0	0	0	0	0	0	0	0	2406	3079	0
1651053509091	-15.616	-6.832	1017.968	0.28	-0.21	1.12	139.5	159	-883.5	0	0	0	0	0	0	0	0	0	0	0	0	0	0	0	0	0	0	2521	3250	0
1651053509101	-24.888	-9.272	1021.384	0.42	-0.21	1.05	139.5	157.5	-883.5	0	0	0	0	0	0	0	0	0	0	0	0	0	0	0	0	0	0	2710	3522	0
1651053509111	-28.304	-1.952	1017.968	0.35	-0.28	0.84	135	156	-888	0	0	0	0	0	0	0	0	0	0	0	0	0	0	0	0	0	0	2935	3837	0
1651053509121	-12.2	-4.392	1018.456	0.21	-0.28	0.63	136.5	156	-889.5	0	0	0	0	0	0	0	0	0	0	0	0	0	0	0	0	0	0	3207	4178	0
1651053509131	-16.592	-1.952	1024.8	0.42	-0.28	0.56	142.5	153	-886.5	0	0	0	0	0	0	0	0	0	0	0	0	0	0	0	0	0	0	3659	4813	0
1651053509141	-27.816	-2.44	1025.776	0.56	-0.28	0.63	141	154.5	-883.5	0	0	0	0	0	0	0	0	0	0	0	0	0	0	0	0	0	0	4571	6010	0
1651053509151	-32.696	0.488	1025.776	0.35	-0.35	0.7	138	159	-883.5	0	0	0	0	0	0	0	0	0	0	0	0	0	0	0	0	0	0	6098	7909	0
1651053509161	-28.304	0.976	1027.24	0.42	-0.21	0.49	141	162	-886.5	0	0	0	0	0	0	0	0	0	0	0	0	0	0	0	0	0	0	8141	10313	0
1651053509171	-16.592	-3.904	1019.432	0.35	-0.28	0.35	139.5	157.5	-886.5	0	0	0	0	0	0	0	0	0	0	0	0	0	0	0	0	0	0	10223	12653	0
1651053509181	-24.888	-9.272	1022.36	0.28	-0.28	-0.14	133.5	154.5	-888	0	0	0	0	0	0	0	0	0	0	0	0	0	0	0	0	0	0	11902	14584	0
1651053509191	-22.936	-7.808	1020.896	0.35	-0.42	0.49	136.5	153	-885	0	0	0	0	0	0	0	0	0	0	0	0	0	0	0	0	0	0	13424	16539	0
1651053509201	-19.52	-5.856	1015.04	0.35	-0.35	0.49	142.5	153	-883.5	0	0	0	0	0	0	0	0	0	0	0	0	0	0	0	0	0	0	15335	19316	0
1651053509211	-20.984	-2.44	1024.8	0.28	-0.35	0.28	142.5	151.5	-889.5	0	0	0	0	0	0	0	0	0	0	0	0	0	0	0	0	0	0	18445	23947	0
1651053509221	-16.592	-7.808	1023.824	0.28	-0.28	0.28	142.5	151.5	-886.5	0	0	0	0	0	0	0	0	0	0	0	0	0	0	0	0	0	0	23396	31106	0
1651053509231	-12.2	-1.952	1024.312	0.21	-0.28	0.28	142.5	157.5	-883.5	0	0	0	0	0	0	0	0	0	0	0	0	0	0	0	0	0	0	29800	39488	0
1651053509241	-8.784	-12.2	1020.408	0.21	-0.35	-0.21	144	160.5	-891	0	0	0	0	0	0	0	0	0	0	0	0	0	0	0	0	0	0	36825	47460	0
1651053509251	-38.064	-2.44	1018.944	0.14	-0.49	-1.05	141	157.5	-886.5	0	0	0	0	0	0	0	0	0	0	0	0	0	0	0	0	0	0	44475	54797	0
1651053509261	-18.544	0.976	1020.896	0.21	-0.35	-0.28	139.5	157.5	-883.5	0	0	0	0	0	0	0	0	0	0	0	0	0	0	0	0	0	0	52234	62696	0
1651053509271	-38.552	-1.464	1018.944	0.28	-0.14	1.05	141	156	-885	0	0	0	0	0	0	0	0	0	0	0	0	0	0	0	0	0	0	59979	68864	0
1651053509281	-25.376	-7.32	1022.36	0.14	-0.28	1.33	139.5	156	-885	0	0	0	0	0	0	0	0	0	0	0	0	0	0	0	0	0	0	65922	73472	0
1651053509291	-12.688	-10.736	1019.432	0.14	-0.21	0.07	138	157.5	-885	0	0	0	0	0	0	0	0	0	0	0	0	0	0	0	0	0	0	70275	77058	0
1651053509301	-31.232	-2.928	1023.824	0.14	-0.28	-1.19	139.5	156	-885	0	0	0	0	0	0	0	0	0	0	0	0	0	0	0	0	0	0	77113	82815	0
1651053509311	-31.232	3.416	1023.824	0.63	-0.21	-0.7	139.5	157.5	-888	0	0	0	0	0	0	0	0	0	0	0	0	0	0	0	0	0	0	92145	96652	0
1651053509321	-26.352	0.488	1020.896	0	-0.35	-0.07	141	160.5	-889.5	0	0	0	0	0	0	0	0	0	0	0	0	0	0	0	0	0	0	119103	121107	0
1651053509331	-22.448	-3.904	1022.36	0	-0.28	0.21	141	159	-885	0	0	0	0	0	0	0	0	0	0	0	0	0	0	0	0	0	0	142674	147227	0
1651053509341	-11.712	0	1023.824	0.21	-0.21	0.35	139.5	151.5	-886.5	0	0	0	0	0	0	0	0	0	0	0	0	0	0	0	0	0	0	141831	159294	0
1651053509351	-19.032	2.44	1017.968	0.07	-0.28	0.35	142.5	151.5	-888	0	0	0	0	0	0	0	0	0	0	0	0	0	0	0	0	0	0	148120	166323	0
1651053509361	-20.984	-1.952	1021.384	0	-0.28	0.42	138	159	-886.5	0	0	0	0	0	0	0	0	0	0	0	0	0	0	0	0	0	0	149301	168604	0
1651053509371	-24.4	-8.784	1021.384	0.21	-0.28	0.42	138	159	-889.5	0	0	0	0	0	0	0	0	0	0	0	0	0	0	0	0	0	0	150104	170155	0
1651053509381	-19.032	-8.784	1023.824	0.07	-0.21	0.42	141	159	-886.5	0	0	0	0	0	0	0	0	0	0	0	0	0	0	0	0	0	0	150893	171692	0
1651053509391	-20.984	-8.784	1025.288	0.07	-0.28	-0.7	139.5	154.5	-883.5	0	0	0	0	0	0	0	0	0	0	0	0	0	0	0	0	0	0	150591	172026	0
1651053509401	-41.968	-6.832	1018.456	0.07	-0.35	-0.7	141	151.5	-880.5	0	0	0	0	0	0	0	0	0	0	0	0	0	0	0	0	0	0	149174	171411	0
1651053509411	-21.472	-8.296	1020.896	-0.14	-0.28	0	142.5	151.5	-880.5	0	0	0	0	0	0	0	0	0	0	0	0	0	0	0	0	0	0	147703	171185	0
1651053509421	-13.664	-7.32	1016.992	-0.07	-0.28	-1.47	142.5	151.5	-885	0	0	0	0	0	0	0	0	0	0	0	0	0	0	0	0	0	0	146437	170114	0
1651053509431	-40.016	12.688	1013.576	-0.07	-0.35	-1.61	142.5	153	-880.5	0	0	0	0	0	0	0	0	0	0	0	0	0	0	0	0	0	0	144427	161674	0
1651053509441	-19.032	-0.488	1022.848	-0.21	-0.35	-0.7	144	151.5	-883.5	0	0	0	0	0	0	0	0	0	0	0	0	0	0	0	0	0	0	134765	133414	0
1651053509451	-22.936	-6.832	1017.48	-0.07	-0.63	-0.21	138	150	-886.5	0	0	0	0	0	0	0	0	0	0	0	0	0	0	0	0	0	0	101278	97581	0
1651053509461	-21.472	-19.52	1027.728	-0.14	-0.42	-0.14	138	156	-891	0	0	0	0	0	0	0	0	0	0	0	0	0	0	0	0	0	0	72584	73335	0
1651053509471	-11.224	-14.152	1014.552	-0.14	-0.14	0	141	156	-886.5	0	0	0	0	0	0	0	0	0	0	0	0	0	0	0	0	0	0	61074	64811	0
1651053509481	-17.08	-3.416	1020.408	-0.21	-0.07	-0.07	138	154.5	-883.5	0	0	0	0	0	0	0	0	0	0	0	0	0	0	0	0	0	0	64078	68705	0
1651053509491	-39.528	-23.912	1018.456	-0.91	-0.35	-0.07	142.5	154.5	-886.5	0	0	0	0	0	0	0	0	0	0	0	0	0	0	0	0	0	0	79159	83585	0
1651053509501	-35.624	13.664	1007.232	-1.12	-0.35	-0.7	145.5	151.5	-892.5	0	0	0	0	0	0	0	0	0	0	0	0	0	0	0	0	0	0	110303	114369	0
1651053509511	-52.704	-2.44	1060.424	-2.45	-0.28	-2.38	139.5	150	-888	0	0	0	0	0	0	0	0	0	0	0	0	0	0	0	0	0	0	141283	155880	0
1651053509521	-13.664	0.976	1014.064	0.49	-0.07	-1.61	136.5	147	-885	0	0	0	0	0	0	0	0	0	0	0	0	0	0	0	0	0	0	160960	187782	0
1651053509531	-18.056	-11.224	1019.92	0.21	-0.28	-0.28	145.5	150	-885	0	0	0	0	0	0	0	0	0	0	0	0	0	0	0	0	0	0	166752	195681	0
1651053509541	-167.384	95.16	1019.432	1.05	0.91	-8.75	142.5	153	-888	0	0	0	0	0	0	0	0	0	0	0	0	0	0	0	0	0	0	168646	198757	0
1651053509551	-34.648	-2.44	1024.312	0	-0.42	-1.47	142.5	153	-895.5	0	0	0	0	0	0	0	0	0	0	0	0	0	0	0	0	0	0	170224	202020	0
1651053509561	-26.352	-9.272	1018.944	-0.49	-1.47	-1.12	142.5	150	-883.5	0	0	0	0	0	0	0	0	0	0	0	0	0	0	0	0	0	0	171565	205323	0
1651053509571	-26.352	0.488	1018.944	-0.42	-1.33	0.28	147	156	-892.5	0	0	0	0	0	0	0	0	0	0	0	0	0	0	0	0	0	0	172446	207964	0
1651053509581	-7.32	-3.416	1022.848	-0.28	-0.63	0.56	150	162	-894	0	0	0	0	0	0	0	0	0	0	0	0	0	0	0	0	0	0	173104	210070	0
1651053509591	-20.008	-15.616	1023.824	-0.14	-0.63	1.4	144	156	-885	0	0	0	0	0	0	0	0	0	0	0	0	0	0	0	0	0	0	174042	212559	0
1651053509601	-13.176	-9.76	1016.992	0.14	-0.28	2.31	142.5	156	-888	0	0	0	0	0	0	0	0	0	0	0	0	0	0	0	0	0	0	174429	212915	0
1651053509611	-13.176	-5.856	1016.016	0.42	0.14	2.45	142.5	157.5	-886.5	0	0	0	0	0	0	0	0	0	0	0	0	0	0	0	0	0	0	174742	213258	0
1651053509621	-39.04	8.296	1021.872	1.89	2.8	2.73	142.5	154.5	-889.5	0	0	0	0	0	0	0	0	0	0	0	0	0	0	0	0	0	0	175224	213586	0
1651053509631	-48.8	6.832	1020.896	0.91	0.77	2.17	138	153	-886.5	0	0	0	0	0	0	0	0	0	0	0	0	0	0	0	0	0	0	175645	213727	0
1651053509641	-14.152	-8.784	1019.92	0.42	-0.14	1.26	135	153	-889.5	0	0	0	0	0	0	0	0	0	0	0	0	0	0	0	0	0	0	176014	213825	0
1651053509651	-22.448	-6.832	1025.776	0.49	-0.14	1.05	141	147	-894	0	0	0	0	0	0	0	0	0	0	0	0	0	0	0	0	0	0	176219	213860	0
1651053509661	-17.568	-13.176	1022.36	0.35	-0.28	0.56	139.5	147	-895.5	0	0	0	0	0	0	0	0	0	0	0	0	0	0	0	0	0	0	176214	213781	0
1651053509671	-16.592	-11.712	1023.336	0.35	-0.35	0.49	141	154.5	-892.5	0	0	0	0	0	0	0	0	0	0	0	0	0	0	0	0	0	0	175967	213562	0
1651053509681	-24.888	-3.904	1023.824	0.28	-0.28	0.49	147	159	-891	0	0	0	0	0	0	0	0	0	0	0	0	0	0	0	0	0	0	175582	213314	0
1651053509691	-15.128	1.464	1017.968	0.42	-0.35	0.49	139.5	156	-894	0	0	0	0	0	0	0	0	0	0	0	0	0	0	0	0	0	0	175011	212971	0
1651053509701	-88.816	-16.104	1015.04	0.28	0.21	11.48	138	156	-897	0	0	0	0	0	0	0	0	0	0	0	0	0	0	0	0	0	0	174416	212610	0
1651053509711	-20.984	-20.984	1022.848	-0.14	-0.35	13.51	141	157.5	-892.5	0	0	0	0	0	0	0	0	0	0	0	0	0	0	0	0	0	0	173882	212389	0
1651053509721	38.064	-8.296	1019.432	0	-0.28	6.86	145.5	154.5	-889.5	0	0	0	0	0	0	0	0	0	0	0	0	0	0	0	0	0	0	173563	212223	0
1651053509731	-23.912	-6.344	1022.848	0.35	0	0.35	142.5	154.5	-892.5	0	0	0	0	0	0	0	0	0	0	0	0	0	0	0	0	0	0	173455	212171	0
1651053509741	-22.448	-7.32	1020.408	0.35	-0.21	0.63	141	160.5	-892.5	0	0	0	0	0	0	0	0	0	0	0	0	0	0	0	0	0	0	173504	212258	0
1651053509751	-21.472	0.488	1016.992	0.28	-0.21	1.96	145.5	160.5	-894	0	0	0	0	0	0	0	0	0	0	0	0	0	0	0	0	0	0	173528	212351	0
1651053509761	-32.696	3.904	1022.36	0.35	-0.21	1.54	142.5	156	-892.5	0	0	0	0	0	0	0	0	0	0	0	0	0	0	0	0	0	0	173535	212475	0
1651053509771	-24.4	-13.664	1024.312	0.42	-0.35	0.21	141	160.5	-889.5	0	0	0	0	0	0	0	0	0	0	0	0	0	0	0	0	0	0	173525	212556	0
1651053509781	-13.176	-11.224	1016.992	0.35	-0.56	0.28	142.5	159	-885	0	0	0	0	0	0	0	0	0	0	0	0	0	0	0	0	0	0	173573	212672	0
1651053509791	21.96	-24.888	1019.432	0.21	-0.35	0.28	144	156	-889.5	0	0	0	0	0	0	0	0	0	0	0	0	0	0	0	0	0	0	173662	212753	0
1651053509801	-69.784	-201.544	1019.432	-3.01	2.8	81.48	147	147	-888	0	0	0	0	0	0	0	0	0	0	0	0	0	0	0	0	0	0	173740	212788	0
1651053509811	-133.712	-118.096	1428.864	-1.4	7.14	79.38	141	148.5	-886.5	0	0	0	0	0	0	0	0	0	0	0	0	0	0	0	0	0	0	173773	212782	0
1651053509821	-83.936	65.88	994.056	-1.33	-1.54	48.93	142.5	159	-883.5	0	0	0	0	0	0	0	0	0	0	0	0	0	0	0	0	0	0	173859	212694	0
1651053509831	-72.712	82.472	1054.568	-1.61	-2.73	40.53	148.5	163.5	-885	0	0	0	0	0	0	0	0	0	0	0	0	0	0	0	0	0	0	173989	212656	0
1651053509841	-26.352	90.768	1017.48	-0.42	-1.12	29.89	147	168	-888	0	0	0	0	0	0	0	0	0	0	0	0	0	0	0	0	0	0	174085	212580	0
1651053509851	-16.104	40.992	1031.632	-0.7	-0.56	27.86	142.5	171	-882	0	0	0	0	0	0	0	0	0	0	0	0	0	0	0	0	0	0	174105	212415	0
1651053509861	-11.224	30.744	1031.144	-0.49	-0.42	22.89	136.5	168	-883.5	0	0	0	0	0	0	0	0	0	0	0	0	0	0	0	0	0	0	173999	212185	0
1651053509871	-1.952	-17.568	1025.288	-0.35	-0.14	19.04	135	163.5	-883.5	0	0	0	0	0	0	0	0	0	0	0	0	0	0	0	0	0	0	173890	211961	0
1651053509881	2.44	-10.736	1017.48	-0.35	0	18.48	141	168	-882	0	0	0	0	0	0	0	0	0	0	0	0	0	0	0	0	0	0	173836	211776	0
1651053509891	5.856	-0.976	1017.968	-0.49	-1.05	19.95	141	174	-886.5	0	0	0	0	0	0	0	0	0	0	0	0	0	0	0	0	0	0	173780	211649	0
1651053509902	-28.792	-8.784	1022.848	-0.35	-0.35	13.93	139.5	177	-889.5	0	0	0	0	0	0	0	0	0	0	0	0	0	0	0	0	0	0	173669	211588	0
1651053509912	-13.664	-3.904	1013.576	-0.07	-0.35	11.41	136.5	177	-891	0	0	0	0	0	0	0	0	0	0	0	0	0	0	0	0	0	0	173583	211496	0
1651053509922	-6.832	-4.88	1042.368	-0.14	-0.7	10.71	142.5	177	-886.5	0	0	0	0	0	0	0	0	0	0	0	0	0	0	0	0	0	0	173609	211397	0
1651053509932	-7.808	-11.224	1013.088	-0.21	-0.56	10.01	141	174	-883.5	0	0	0	0	0	0	0	0	0	0	0	0	0	0	0	0	0	0	173723	211384	0
1651053509942	-5.856	-0.976	1024.312	0.07	-0.07	8.4	135	171	-883.5	0	0	0	0	0	0	0	0	0	0	0	0	0	0	0	0	0	0	173854	211346	0
1651053509952	1.464	3.904	1021.872	0.21	-0.49	5.53	145.5	172.5	-883.5	0	0	0	0	0	0	0	0	0	0	0	0	0	0	0	0	0	0	173923	211270	0
1651053509962	7.32	-1.464	1030.168	0.49	0	3.15	153	169.5	-886.5	0	0	0	0	0	0	0	0	0	0	0	0	0	0	0	0	0	0	173934	211170	0
1651053509972	-18.544	3.904	1014.552	0.7	0.28	0.56	142.5	165	-886.5	0	0	0	0	0	0	0	0	0	0	0	0	0	0	0	0	0	0	173839	210989	0
1651053509982	-12.2	-6.832	1023.336	0.35	-0.28	0.35	141	171	-892.5	0	0	0	0	0	0	0	0	0	0	0	0	0	0	0	0	0	0	173674	210789	0
1651053509992	-18.544	-8.784	1019.432	0.28	-0.14	0.42	141	169.5	-894	0	0	0	0	0	0	0	0	0	0	0	0	0	0	0	0	0	0	173450	210536	0
1651053510002	-20.984	-4.88	1026.752	0.35	-0.21	0.56	133.5	169.5	-885	0	0	0	0	0	0	0	0	0	0	0	0	0	0	0	0	0	0	173199	210285	0
1651053510012	-22.448	-5.856	1020.408	0.42	-0.28	0.42	130.5	174	-886.5	0	0	0	0	0	0	0	0	0	0	0	0	0	0	0	0	0	0	172898	209997	0
1651053510022	-33.184	-7.808	1024.8	0.49	-0.21	0.35	135	172.5	-891	0	0	0	0	0	0	0	0	0	0	0	0	0	0	0	0	0	0	172728	209837	0
1651053510032	-24.888	-10.736	1023.824	0.42	-0.28	0.42	139.5	169.5	-891	0	0	0	0	0	0	0	0	0	0	0	0	0	0	0	0	0	0	172591	209670	0
1651053510042	-21.96	-10.248	1028.216	0.42	-0.28	0.42	138	169.5	-886.5	0	0	0	0	0	0	0	0	0	0	0	0	0	0	0	0	0	0	172494	209519	0
1651053510052	-27.328	-9.76	1023.824	0.42	-0.14	0.42	136.5	172.5	-885	0	0	0	0	0	0	0	0	0	0	0	0	0	0	0	0	0	0	172423	209359	0
1651053510062	-30.744	-8.296	1021.872	0.42	-0.28	0.42	138	166.5	-886.5	0	0	0	0	0	0	0	0	0	0	0	0	0	0	0	0	0	0	172471	209321	0
1651053510072	-30.744	-9.76	1025.776	0.35	-0.28	0.42	139.5	174	-888	0	0	0	0	0	0	0	0	0	0	0	0	0	0	0	0	0	0	172559	209299	0
1651053510082	-30.256	-1.464	1019.432	0.42	-0.21	0.49	141	183	-885	0	0	0	0	0	0	0	0	0	0	0	0	0	0	0	0	0	0	172595	209248	0
1651053510092	-27.816	-3.416	1019.432	0.35	-0.21	0.35	136.5	172.5	-879	0	0	0	0	0	0	0	0	0	0	0	0	0	0	0	0	0	0	172618	209173	0
1651053510102	-25.864	-9.76	1015.528	0.42	-0.28	0.35	130.5	171	-880.5	0	0	0	0	0	0	0	0	0	0	0	0	0	0	0	0	0	0	172577	209073	0
1651053510112	-16.592	-6.344	1020.408	0.35	-0.21	0.35	132	180	-886.5	0	0	0	0	0	0	0	0	0	0	0	0	0	0	0	0	0	0	172518	208979	0
1651053510122	-21.96	-8.296	1017.968	0.35	-0.14	0.42	132	177	-886.5	0	0	0	0	0	0	0	0	0	0	0	0	0	0	0	0	0	0	172430	208864	0
1651053510132	-20.984	-11.224	1018.944	0.28	-0.21	0.49	132	171	-888	0	0	0	0	0	0	0	0	0	0	0	0	0	0	0	0	0	0	172356	208783	0
1651053510142	-28.792	-1.464	1019.432	0.35	-0.14	0.49	135	169.5	-888	0	0	0	0	0	0	0	0	0	0	0	0	0	0	0	0	0	0	172315	208714	0
1651053510152	-31.72	-0.976	1018.944	0.35	-0.28	0.42	136.5	172.5	-883.5	0	0	0	0	0	0	0	0	0	0	0	0	0	0	0	0	0	0	172268	208649	0
1651053510162	-19.52	-5.368	1022.848	0.35	-0.28	0.35	135	175.5	-882	0	0	0	0	0	0	0	0	0	0	0	0	0	0	0	0	0	0	172212	208573	0
1651053510172	-16.592	-9.272	1021.872	0.42	-0.21	0.35	138	174	-877.5	0	0	0	0	0	0	0	0	0	0	0	0	0	0	0	0	0	0	172136	208474	0
1651053510182	-25.376	-12.2	1019.432	0.35	-0.28	0.35	136.5	171	-885	0	0	0	0	0	0	0	0	0	0	0	0	0	0	0	0	0	0	172036	208354	0
1651053510192	-27.816	-4.392	1020.896	0.35	-0.28	0.42	130.5	171	-885	0	0	0	0	0	0	0	0	0	0	0	0	0	0	0	0	0	0	171928	208226	0
1651053510202	-28.304	-8.296	1022.848	0.42	-0.21	0.49	136.5	172.5	-886.5	0	0	0	0	0	0	0	0	0	0	0	0	0	0	0	0	0	0	171850	208105	0
1651053510212	-27.816	-8.784	1023.824	0.42	-0.14	0.49	136.5	166.5	-888	0	0	0	0	0	0	0	0	0	0	0	0	0	0	0	0	0	0	171823	208016	0
1651053510222	-20.984	-7.808	1021.872	0.42	-0.14	0.42	132	166.5	-885	0	0	0	0	0	0	0	0	0	0	0	0	0	0	0	0	0	0	171780	207878	0
1651053510232	-26.352	-10.248	1022.848	0.42	-0.21	0.42	133.5	171	-888	0	0	0	0	0	0	0	0	0	0	0	0	0	0	0	0	0	0	171749	207786	0
1651053510242	-39.04	0	1034.56	0.21	-0.28	0.56	135	174	-889.5	0	0	0	0	0	0	0	0	0	0	0	0	0	0	0	0	0	0	171689	207663	0
1651053510252	-31.72	-0.976	1029.68	0.07	-0.56	0.56	136.5	174	-888	0	0	0	0	0	0	0	0	0	0	0	0	0	0	0	0	0	0	171641	207541	0
1651053510262	-25.376	-4.88	1022.848	0.35	-0.28	0.42	136.5	174	-888	0	0	0	0	0	0	0	0	0	0	0	0	0	0	0	0	0	0	171629	207490	0
1651053510272	-35.136	-15.616	1011.624	0.56	-0.14	0.35	133.5	171	-888	0	0	0	0	0	0	0	0	0	0	0	0	0	0	0	0	0	0	171625	207466	0
1651053510282	-20.984	-14.152	1020.896	0.35	-0.21	0.42	132	168	-883.5	0	0	0	0	0	0	0	0	0	0	0	0	0	0	0	0	0	0	171625	207446	0
1651053510292	-20.984	-9.272	1021.384	0.28	-0.21	0.49	135	174	-880.5	0	0	0	0	0	0	0	0	0	0	0	0	0	0	0	0	0	0	171617	207470	0
1651053510302	-19.52	1.952	1005.768	0.28	-0.21	0.49	138	175.5	-882	0	0	0	0	0	0	0	0	0	0	0	0	0	0	0	0	0	0	171581	207501	0
1651053510312	-18.056	-3.416	1016.504	0.42	-0.21	0.35	139.5	174	-882	0	0	0	0	0	0	0	0	0	0	0	0	0	0	0	0	0	0	171541	207506	0
1651053510322	-28.304	-4.392	1024.312	0.35	-0.21	0.49	135	169.5	-883.5	0	0	0	0	0	0	0	0	0	0	0	0	0	0	0	0	0	0	171436	207442	0
1651053510332	-24.888	-9.272	1024.312	0.35	-0.21	0.56	133.5	171	-883.5	0	0	0	0	0	0	0	0	0	0	0	0	0	0	0	0	0	0	171328	207356	0
1651053510342	-24.4	-10.736	1017.968	0.35	-0.21	0.42	132	175.5	-885	0	0	0	0	0	0	0	0	0	0	0	0	0	0	0	0	0	0	171198	207295	0
1651053510352	-26.84	-7.808	1062.864	0.21	-0.42	0.42	132	171	-885	0	0	0	0	0	0	0	0	0	0	0	0	0	0	0	0	0	0	171117	207244	0
1651053510362	-22.448	-5.856	997.472	0.42	-0.07	0.42	130.5	169.5	-882	0	0	0	0	0	0	0	0	0	0	0	0	0	0	0	0	0	0	171046	207235	0
1651053510372	-29.28	-1.464	1015.528	0.35	-0.28	0.42	132	169.5	-883.5	0	0	0	0	0	0	0	0	0	0	0	0	0	0	0	0	0	0	170992	207221	0
1651053510382	-5.856	-3.904	1022.848	0.42	-0.35	0.49	132	171	-883.5	0	0	0	0	0	0	0	0	0	0	0	0	0	0	0	0	0	0	170964	207188	0
1651053510392	-41.968	-14.152	1014.064	0.28	-0.42	0.35	135	177	-882	0	0	0	0	0	0	0	0	0	0	0	0	0	0	0	0	0	0	170927	207168	0
1651053510402	-28.792	-4.392	1006.256	0.63	-0.14	0.42	132	175.5	-885	0	0	0	0	0	0	0	0	0	0	0	0	0	0	0	0	0	0	170927	207143	0
1651053510412	-26.352	3.904	1028.704	0.21	-0.35	0.42	132	174	-889.5	0	0	0	0	0	0	0	0	0	0	0	0	0	0	0	0	0	0	170948	207141	0
1651053510422	-19.52	-0.488	1031.144	0.35	-0.28	0.35	130.5	175.5	-886.5	0	0	0	0	0	0	0	0	0	0	0	0	0	0	0	0	0	0	170958	207141	0
1651053510432	-23.424	1.464	1009.672	0.42	-0.07	0.35	130.5	175.5	-883.5	0	0	0	0	0	0	0	0	0	0	0	0	0	0	0	0	0	0	170992	207168	0
1651053510442	-30.744	-15.616	1032.12	0.35	-0.21	0.35	139.5	175.5	-886.5	0	0	0	0	0	0	0	0	0	0	0	0	0	0	0	0	0	0	171039	207204	0
1651053510452	-23.912	-17.568	1016.992	0.35	-0.21	0.28	142.5	168	-886.5	0	0	0	0	0	0	0	0	0	0	0	0	0	0	0	0	0	0	171093	207257	0
1651053510462	-20.008	-13.664	1016.992	0.42	-0.28	0.35	138	168	-886.5	0	0	0	0	0	0	0	0	0	0	0	0	0	0	0	0	0	0	171139	207317	0
1651053510472	-23.424	-11.224	1016.992	0.42	-0.21	0.49	133.5	172.5	-883.5	0	0	0	0	0	0	0	0	0	0	0	0	0	0	0	0	0	0	171156	207340	0
1651053510482	-26.84	-4.88	1027.24	0.42	-0.28	0.35	138	172.5	-886.5	0	0	0	0	0	0	0	0	0	0	0	0	0	0	0	0	0	0	171139	207308	0
1651053510492	-21.472	-4.88	1021.872	0.35	-0.28	0.42	135	172.5	-883.5	0	0	0	0	0	0	0	0	0	0	0	0	0	0	0	0	0	0	171119	207245	0
1651053510502	-17.08	-7.808	1021.384	0.28	-0.28	0.35	135	174	-880.5	0	0	0	0	0	0	0	0	0	0	0	0	0	0	0	0	0	0	171075	207182	0
1651053510512	-19.52	-13.664	1027.24	0.49	-0.28	0.42	135	172.5	-882	0	0	0	0	0	0	0	0	0	0	0	0	0	0	0	0	0	0	171027	207068	0
1651053510522	-21.472	-4.392	1025.776	0.28	-0.21	0.49	135	174	-885	0	0	0	0	0	0	0	0	0	0	0	0	0	0	0	0	0	0	170999	206950	0
1651053510532	-23.912	-6.344	1018.456	0.42	-0.35	0.42	135	172.5	-885	0	0	0	0	0	0	0	0	0	0	0	0	0	0	0	0	0	0	170967	206823	0
1651053510542	-23.424	-6.344	1017.968	0.28	-0.21	0.42	136.5	172.5	-886.5	0	0	0	0	0	0	0	0	0	0	0	0	0	0	0	0	0	0	170979	206749	0
1651053510552	-18.056	-6.344	1021.384	0.42	-0.28	0.42	138	171	-885	0	0	0	0	0	0	0	0	0	0	0	0	0	0	0	0	0	0	171028	206714	0
1651053510562	-18.544	-11.712	1017.968	0.35	-0.21	0.35	139.5	171	-883.5	0	0	0	0	0	0	0	0	0	0	0	0	0	0	0	0	0	0	171075	206718	0
1651053510572	-23.424	-13.176	1023.824	0.28	-0.28	0.35	139.5	172.5	-885	0	0	0	0	0	0	0	0	0	0	0	0	0	0	0	0	0	0	171018	206824	0
1651053510582	-26.352	-9.272	1023.824	0.28	-0.21	0.49	136.5	171	-888	0	0	0	0	0	0	0	0	0	0	0	0	0	0	0	0	0	0	171004	206792	0
1651053510592	-31.72	-9.272	1018.456	0.42	-0.28	0.49	138	174	-888	0	0	0	0	0	0	0	0	0	0	0	0	0	0	0	0	0	0	171037	206817	0
1651053510602	-8.296	-7.32	1018.456	-0.07	-0.63	0.56	139.5	174	-883.5	0	0	0	0	0	0	0	0	0	0	0	0	0	0	0	0	0	0	171038	206853	0
1651053510612	-24.4	-9.76	1022.848	0.28	-0.42	0.49	136.5	172.5	-886.5	0	0	0	0	0	0	0	0	0	0	0	0	0	0	0	0	0	0	171019	206886	0
1651053510622	-16.592	-10.736	1018.456	0.35	-0.28	0.42	130.5	172.5	-885	0	0	0	0	0	0	0	0	0	0	0	0	0	0	0	0	0	0	170996	206927	0
1651053510632	-21.96	-14.64	1026.752	0.35	-0.28	0.49	135	177	-883.5	0	0	0	0	0	0	0	0	0	0	0	0	0	0	0	0	0	0	170960	206951	0
1651053510642	-18.056	-7.32	1018.456	0.35	-0.35	0.49	138	177	-883.5	0	0	0	0	0	0	0	0	0	0	0	0	0	0	0	0	0	0	170929	207010	0
1651053510652	-21.96	-5.368	1016.504	0.28	-0.21	0.49	135	172.5	-886.5	0	0	0	0	0	0	0	0	0	0	0	0	0	0	0	0	0	0	170904	207017	0
1651053510662	-25.864	-4.88	1023.824	0.21	-0.21	0.42	133.5	174	-886.5	0	0	0	0	0	0	0	0	0	0	0	0	0	0	0	0	0	0	170852	206988	0
1651053510672	-19.032	0.488	1025.776	0.49	-0.21	0.35	138	177	-889.5	0	0	0	0	0	0	0	0	0	0	0	0	0	0	0	0	0	0	170836	206979	0
1651053510682	-25.864	-11.712	1021.872	0.42	-0.21	0.42	135	175.5	-891	0	0	0	0	0	0	0	0	0	0	0	0	0	0	0	0	0	0	170803	206928	0
1651053510692	-26.84	-11.224	1018.456	0.35	-0.21	0.42	135	172.5	-888	0	0	0	0	0	0	0	0	0	0	0	0	0	0	0	0	0	0	170760	206834	0
1651053510702	-14.64	-15.128	1022.36	0.49	-0.21	0.42	132	175.5	-892.5	0	0	0	0	0	0	0	0	0	0	0	0	0	0	0	0	0	0	170712	206740	0
1651053510712	-21.472	-10.248	1016.016	0.35	-0.21	0.42	133.5	175.5	-886.5	0	0	0	0	0	0	0	0	0	0	0	0	0	0	0	0	0	0	170676	206672	0
1651053510722	-25.376	-2.928	1018.944	0.42	-0.21	0.42	138	172.5	-885	0	0	0	0	0	0	0	0	0	0	0	0	0	0	0	0	0	0	170658	206597	0
1651053510732	-28.304	-8.784	1025.288	0.35	-0.28	0.42	139.5	172.5	-883.5	0	0	0	0	0	0	0	0	0	0	0	0	0	0	0	0	0	0	170632	206519	0
1651053510743	-23.424	-5.368	1021.872	0.35	-0.28	0.42	139.5	174	-888	0	0	0	0	0	0	0	0	0	0	0	0	0	0	0	0	0	0	170608	206483	0
1651053510753	-23.424	-11.712	1022.848	0.35	-0.28	0.35	135	174	-892.5	0	0	0	0	0	0	0	0	0	0	0	0	0	0	0	0	0	0	170607	206453	0
1651053510763	-31.72	-10.736	1017.968	0.35	-0.28	0.35	130.5	174	-885	0	0	0	0	0	0	0	0	0	0	0	0	0	0	0	0	0	0	170592	206394	0
1651053510773	-24.4	-6.832	1024.8	0.42	-0.21	0.49	133.5	172.5	-880.5	0	0	0	0	0	0	0	0	0	0	0	0	0	0	0	0	0	0	170558	206362	0
1651053510783	-24.4	-5.856	1027.728	0.14	-0.35	0.49	135	171	-882	0	0	0	0	0	0	0	0	0	0	0	0	0	0	0	0	0	0	170548	206306	0
1651053510793	-23.912	-7.808	1022.36	0.42	-0.28	0.49	132	174	-882	0	0	0	0	0	0	0	0	0	0	0	0	0	0	0	0	0	0	170545	206279	0
1651053510803	-26.84	-4.88	1019.432	0.35	-0.28	0.42	136.5	178.5	-885	0	0	0	0	0	0	0	0	0	0	0	0	0	0	0	0	0	0	170550	206228	0
1651053510813	-24.888	-6.832	1019.432	0.28	-0.21	0.42	136.5	172.5	-889.5	0	0	0	0	0	0	0	0	0	0	0	0	0	0	0	0	0	0	170540	206229	0
1651053510823	-25.864	-10.248	1017.48	0.42	-0.21	0.35	130.5	165	-883.5	0	0	0	0	0	0	0	0	0	0	0	0	0	0	0	0	0	0	170511	206198	0
1651053510833	-25.864	-12.688	1022.848	0.35	-0.28	0.42	133.5	175.5	-886.5	0	0	0	0	0	0	0	0	0	0	0	0	0	0	0	0	0	0	170477	206178	0
1651053510843	-30.744	0.976	1024.312	0.35	-0.21	0.35	136.5	181.5	-886.5	0	0	0	0	0	0	0	0	0	0	0	0	0	0	0	0	0	0	170457	206144	0
1651053510853	-22.936	-10.736	1023.824	0.42	-0.35	0.42	133.5	172.5	-888	0	0	0	0	0	0	0	0	0	0	0	0	0	0	0	0	0	0	170433	206136	0
1651053510863	-21.96	-2.44	1022.848	0.49	-0.21	0.42	133.5	172.5	-888	0	0	0	0	0	0	0	0	0	0	0	0	0	0	0	0	0	0	170400	206108	0
1651053510873	-28.792	-6.832	1021.872	0.35	-0.28	0.35	136.5	168	-889.5	0	0	0	0	0	0	0	0	0	0	0	0	0	0	0	0	0	0	170357	206062	0
1651053510883	-21.472	-4.88	1024.8	0.42	-0.35	0.35	136.5	169.5	-879	0	0	0	0	0	0	0	0	0	0	0	0	0	0	0	0	0	0	170322	206026	0
1651053510893	-27.328	-10.736	1028.704	0.35	-0.14	0.35	142.5	172.5	-882	0	0	0	0	0	0	0	0	0	0	0	0	0	0	0	0	0	0	170280	205973	0
1651053510903	-22.936	-0.976	1021.384	0.49	-0.21	0.42	142.5	172.5	-886.5	0	0	0	0	0	0	0	0	0	0	0	0	0	0	0	0	0	0	170283	205950	0
1651053510913	-21.472	-3.904	1018.944	0.42	-0.21	0.35	138	172.5	-886.5	0	0	0	0	0	0	0	0	0	0	0	0	0	0	0	0	0	0	170272	205904	0
1651053510923	-26.352	-12.2	1027.728	0.42	-0.21	0.42	135	174	-886.5	0	0	0	0	0	0	0	0	0	0	0	0	0	0	0	0	0	0	170272	205946	0
1651053510933	-24.888	-9.272	1025.776	0.35	-0.21	0.49	135	177	-888	0	0	0	0	0	0	0	0	0	0	0	0	0	0	0	0	0	0	170222	205967	0
1651053510943	-22.936	-5.368	1022.36	0.21	-0.21	0.42	136.5	169.5	-885	0	0	0	0	0	0	0	0	0	0	0	0	0	0	0	0	0	0	170185	205907	0
1651053510953	-17.08	-14.152	1018.456	0.42	-0.14	0.42	138	166.5	-885	0	0	0	0	0	0	0	0	0	0	0	0	0	0	0	0	0	0	170177	205891	0
1651053510963	-20.496	-4.392	1028.216	0	-0.35	0.49	133.5	171	-882	0	0	0	0	0	0	0	0	0	0	0	0	0	0	0	0	0	0	170155	205884	0
1651053510973	-21.472	-6.832	1019.92	0.42	-0.14	0.42	132	174	-883.5	0	0	0	0	0	0	0	0	0	0	0	0	0	0	0	0	0	0	170111	205875	0
1651053510983	-22.448	-5.368	1021.872	0.35	-0.21	0.28	136.5	174	-885	0	0	0	0	0	0	0	0	0	0	0	0	0	0	0	0	0	0	170085	205895	0
1651053510993	-32.696	-8.296	1021.384	0.35	-0.28	0.42	136.5	174	-883.5	0	0	0	0	0	0	0	0	0	0	0	0	0	0	0	0	0	0	170068	205896	0
1651053511003	-20.008	-5.368	1025.288	0.35	-0.35	0.28	135	174	-883.5	0	0	0	0	0	0	0	0	0	0	0	0	0	0	0	0	0	0	170058	205889	0
1651053511013	-18.544	-5.856	1019.92	0.42	-0.21	0.35	135	171	-883.5	0	0	0	0	0	0	0	0	0	0	0	0	0	0	0	0	0	0	170044	205895	0
1651053511023	-28.792	-4.88	1025.288	0.28	-0.21	0.35	133.5	174	-880.5	0	0	0	0	0	0	0	0	0	0	0	0	0	0	0	0	0	0	170026	205875	0
1651053511033	-28.792	-4.392	1021.872	0.42	-0.21	0.49	138	180	-882	0	0	0	0	0	0	0	0	0	0	0	0	0	0	0	0	0	0	170032	205847	0
1651053511043	-25.376	-5.368	1017.968	0.21	-0.28	0.35	136.5	172.5	-888	0	0	0	0	0	0	0	0	0	0	0	0	0	0	0	0	0	0	170012	205822	0
1651053511053	-35.624	-1.464	1017.48	0.56	-0.21	0.35	129	169.5	-885	0	0	0	0	0	0	0	0	0	0	0	0	0	0	0	0	0	0	170012	205816	0
1651053511063	-25.864	-11.712	1018.456	0.49	-0.21	0.35	133.5	174	-883.5	0	0	0	0	0	0	0	0	0	0	0	0	0	0	0	0	0	0	170025	205832	0
1651053511073	-26.352	-6.832	1020.896	0.35	-0.28	0.42	141	175.5	-886.5	0	0	0	0	0	0	0	0	0	0	0	0	0	0	0	0	0	0	170020	205850	0
1651053511083	-21.472	-9.76	1026.752	0.42	-0.21	0.49	139.5	169.5	-889.5	0	0	0	0	0	0	0	0	0	0	0	0	0	0	0	0	0	0	169978	205831	0
1651053511093	-20.984	-7.808	1021.872	0.35	-0.14	0.42	141	174	-888	0	0	0	0	0	0	0	0	0	0	0	0	0	0	0	0	0	0	169986	205828	0
1651053511103	-27.816	-4.88	1017.48	0.35	-0.35	0.42	139.5	180	-883.5	0	0	0	0	0	0	0	0	0	0	0	0	0	0	0	0	0	0	169982	205839	0
1651053511113	-21.472	-3.416	1010.16	0.35	-0.14	0.42	135	172.5	-882	0	0	0	0	0	0	0	0	0	0	0	0	0	0	0	0	0	0	169977	205837	0
1651053511123	-20.984	-0.488	1017.968	0.35	-0.28	0.42	135	169.5	-886.5	0	0	0	0	0	0	0	0	0	0	0	0	0	0	0	0	0	0	169987	205832	0
1651053511133	-25.864	-1.464	1026.264	0.21	-0.42	0.42	139.5	174	-888	0	0	0	0	0	0	0	0	0	0	0	0	0	0	0	0	0	0	169992	205830	0
1651053511143	-23.424	-5.856	1018.944	0.42	-0.21	0.42	138	172.5	-886.5	0	0	0	0	0	0	0	0	0	0	0	0	0	0	0	0	0	0	169994	205832	0
1651053511153	-20.984	-2.928	1019.92	0.14	-0.28	0.42	133.5	172.5	-889.5	0	0	0	0	0	0	0	0	0	0	0	0	0	0	0	0	0	0	170002	205815	0
1651053511163	-32.696	-6.832	1021.872	0.35	-0.21	0.35	138	175.5	-883.5	0	0	0	0	0	0	0	0	0	0	0	0	0	0	0	0	0	0	169992	205790	0
1651053511173	-22.448	-12.2	1021.384	0.35	-0.28	0.35	136.5	174	-882	0	0	0	0	0	0	0	0	0	0	0	0	0	0	0	0	0	0	169975	205769	0
1651053511183	-23.912	-9.272	1020.408	0.35	-0.28	0.35	136.5	168	-885	0	0	0	0	0	0	0	0	0	0	0	0	0	0	0	0	0	0	169968	205752	0
1651053511193	-24.888	-6.832	1026.264	0.42	-0.21	0.42	136.5	169.5	-886.5	0	0	0	0	0	0	0	0	0	0	0	0	0	0	0	0	0	0	169961	205745	0
1651053511203	-22.448	-10.248	1019.432	0.42	-0.35	0.42	133.5	171	-883.5	0	0	0	0	0	0	0	0	0	0	0	0	0	0	0	0	0	0	169990	205712	0
1651053511213	-33.672	-4.392	1020.408	0.35	-0.21	0.42	139.5	177	-883.5	0	0	0	0	0	0	0	0	0	0	0	0	0	0	0	0	0	0	169967	205660	0
1651053511223	-30.744	-7.808	1018.456	0.35	-0.21	0.35	141	175.5	-877.5	0	0	0	0	0	0	0	0	0	0	0	0	0	0	0	0	0	0	169957	205621	0
1651053511233	-19.032	-14.152	1022.36	0.42	-0.21	0.42	135	168	-879	0	0	0	0	0	0	0	0	0	0	0	0	0	0	0	0	0	0	169931	205541	0
1651053511243	-20.496	-14.152	1024.8	0.21	-0.35	0.42	136.5	166.5	-883.5	0	0	0	0	0	0	0	0	0	0	0	0	0	0	0	0	0	0	169903	205500	0
1651053511253	-17.568	-1.464	1021.384	0.42	-0.14	0.49	139.5	168	-883.5	0	0	0	0	0	0	0	0	0	0	0	0	0	0	0	0	0	0	169868	205424	0
1651053511263	-19.032	-7.808	1022.848	0.35	-0.28	0.42	136.5	168	-885	0	0	0	0	0	0	0	0	0	0	0	0	0	0	0	0	0	0	169842	205377	0
1651053511273	-24.4	-2.928	1014.064	0.42	-0.28	0.35	138	168	-885	0	0	0	0	0	0	0	0	0	0	0	0	0	0	0	0	0	0	169789	205280	0
1651053511283	-18.056	-10.736	1018.944	0.28	-0.28	0.35	138	171	-886.5	0	0	0	0	0	0	0	0	0	0	0	0	0	0	0	0	0	0	169729	205238	0
1651053511293	-20.984	-9.76	1016.016	0.35	-0.21	0.35	139.5	175.5	-886.5	0	0	0	0	0	0	0	0	0	0	0	0	0	0	0	0	0	0	169716	205188	0
1651053511303	-25.864	-9.76	1021.384	0.35	-0.35	0.35	141	175.5	-888	0	0	0	0	0	0	0	0	0	0	0	0	0	0	0	0	0	0	169685	205172	0
1651053511313	-22.448	-9.76	1019.92	0.35	-0.21	0.35	141	172.5	-886.5	0	0	0	0	0	0	0	0	0	0	0	0	0	0	0	0	0	0	169669	205140	0
1651053511323	-18.544	-10.248	1016.992	0.42	-0.21	0.42	136.5	171	-885	0	0	0	0	0	0	0	0	0	0	0	0	0	0	0	0	0	0	169653	205126	0
1651053511333	-22.936	-8.784	1017.48	0.21	-0.28	0.35	135	177	-891	0	0	0	0	0	0	0	0	0	0	0	0	0	0	0	0	0	0	169645	205125	0
1651053511343	-19.032	-12.688	1020.408	0.35	-0.28	0.35	138	174	-889.5	0	0	0	0	0	0	0	0	0	0	0	0	0	0	0	0	0	0	169632	205105	0
1651053511353	-28.304	-11.224	1025.288	0.42	-0.28	0.42	135	169.5	-885	0	0	0	0	0	0	0	0	0	0	0	0	0	0	0	0	0	0	169611	205067	0
1651053511363	-23.424	-3.904	1018.456	0.35	-0.28	0.28	135	171	-880.5	0	0	0	0	0	0	0	0	0	0	0	0	0	0	0	0	0	0	169603	205032	0
1651053511373	-27.328	-9.76	1020.408	0.35	-0.21	0.35	139.5	169.5	-879	0	0	0	0	0	0	0	0	0	0	0	0	0	0	0	0	0	0	169584	205020	0
1651053511383	-25.376	-9.272	1020.896	0.49	-0.14	0.35	139.5	171	-882	0	0	0	0	0	0	0	0	0	0	0	0	0	0	0	0	0	0	169572	204999	0
1651053511393	-29.28	-12.2	1024.312	0.28	-0.21	0.42	138	175.5	-880.5	0	0	0	0	0	0	0	0	0	0	0	0	0	0	0	0	0	0	169552	204987	0
1651053511403	-27.328	-6.344	1023.336	0.35	-0.28	0.49	132	177	-880.5	0	0	0	0	0	0	0	0	0	0	0	0	0	0	0	0	0	0	169556	204997	0
1651053511413	-31.72	-8.296	1020.896	0.28	-0.28	0.49	126	177	-885	0	0	0	0	0	0	0	0	0	0	0	0	0	0	0	0	0	0	169563	205001	0
1651053511423	-34.16	-3.904	1023.336	0.35	-0.21	0.42	127.5	172.5	-886.5	0	0	0	0	0	0	0	0	0	0	0	0	0	0	0	0	0	0	169570	205018	0
1651053511433	-19.52	-12.688	1017.48	0.42	-0.21	0.42	133.5	172.5	-883.5	0	0	0	0	0	0	0	0	0	0	0	0	0	0	0	0	0	0	169558	205011	0
1651053511443	-28.792	-4.392	1026.264	0.42	-0.21	0.35	141	172.5	-883.5	0	0	0	0	0	0	0	0	0	0	0	0	0	0	0	0	0	0	169566	205002	0
1651053511453	-23.912	-12.2	1025.288	0.42	-0.28	0.35	139.5	169.5	-882	0	0	0	0	0	0	0	0	0	0	0	0	0	0	0	0	0	0	169552	204995	0
1651053511463	-24.4	-5.856	1019.432	0.28	-0.21	0.49	141	177	-885	0	0	0	0	0	0	0	0	0	0	0	0	0	0	0	0	0	0	169554	205010	0
1651053511473	-30.256	-6.832	1021.384	0.35	-0.21	0.49	142.5	174	-886.5	0	0	0	0	0	0	0	0	0	0	0	0	0	0	0	0	0	0	169541	205018	0
1651053511483	-25.376	-1.464	1019.432	0.35	-0.28	0.42	138	171	-889.5	0	0	0	0	0	0	0	0	0	0	0	0	0	0	0	0	0	0	169541	205031	0
1651053511493	-26.352	-2.44	1016.504	0.35	-0.21	0.42	132	171	-892.5	0	0	0	0	0	0	0	0	0	0	0	0	0	0	0	0	0	0	169537	205024	0
1651053511503	-22.936	-6.344	1022.36	0.42	-0.21	0.42	132	174	-892.5	0	0	0	0	0	0	0	0	0	0	0	0	0	0	0	0	0	0	169532	205019	0
1651053511513	-21.472	-14.152	1018.456	0.35	-0.28	0.42	138	175.5	-886.5	0	0	0	0	0	0	0	0	0	0	0	0	0	0	0	0	0	0	169523	205002	0
1651053511523	-21.472	-13.664	1017.968	0.42	-0.35	0.42	132	174	-886.5	0	0	0	0	0	0	0	0	0	0	0	0	0	0	0	0	0	0	169498	204979	0
1651053511533	-25.864	-7.808	1030.656	0.42	-0.28	0.42	130.5	171	-885	0	0	0	0	0	0	0	0	0	0	0	0	0	0	0	0	0	0	169466	204940	0
1651053511543	-29.28	-13.664	1023.824	0.35	-0.14	0.42	135	171	-885	0	0	0	0	0	0	0	0	0	0	0	0	0	0	0	0	0	0	169458	204933	0
1651053511553	-23.912	-2.44	1016.504	0.49	-0.21	0.35	135	174	-886.5	0	0	0	0	0	0	0	0	0	0	0	0	0	0	0	0	0	0	169455	204929	0
1651053511563	-21.96	-7.32	1023.824	0.35	-0.21	0.42	133.5	175.5	-882	0	0	0	0	0	0	0	0	0	0	0	0	0	0	0	0	0	0	169455	204920	0
1651053511573	-22.936	-4.88	1020.408	0.28	-0.28	0.49	138	175.5	-885	0	0	0	0	0	0	0	0	0	0	0	0	0	0	0	0	0	0	169459	204914	0
1651053511583	-24.888	-13.664	1030.168	0.42	-0.28	0.42	132	177	-885	0	0	0	0	0	0	0	0	0	0	0	0	0	0	0	0	0	0	169459	204898	0
1651053511593	-27.816	-6.832	1017.48	0.35	-0.21	0.35	132	174	-886.5	0	0	0	0	0	0	0	0	0	0	0	0	0	0	0	0	0	0	169447	204881	0
1651053511603	-17.08	-9.272	1013.576	0.42	-0.28	0.42	132	171	-891	0	0	0	0	0	0	0	0	0	0	0	0	0	0	0	0	0	0	169459	204866	0
1651053511613	-21.472	-9.76	1021.872	0.42	-0.14	0.42	135	177	-885	0	0	0	0	0	0	0	0	0	0	0	0	0	0	0	0	0	0	169451	204878	0
1651053511623	-29.768	-10.736	1027.24	0.28	-0.14	0.49	138	175.5	-880.5	0	0	0	0	0	0	0	0	0	0	0	0	0	0	0	0	0	0	169454	204874	0
1651053511633	-26.352	-11.224	1016.504	0.42	-0.21	0.42	136.5	172.5	-886.5	0	0	0	0	0	0	0	0	0	0	0	0	0	0	0	0	0	0	169468	204874	0
1651053511643	-20.984	-12.688	1019.92	0.35	-0.35	0.35	141	171	-888	0	0	0	0	0	0	0	0	0	0	0	0	0	0	0	0	0	0	169476	204891	0
1651053511653	-29.28	-3.904	1020.408	0.35	-0.28	0.35	138	171	-882	0	0	0	0	0	0	0	0	0	0	0	0	0	0	0	0	0	0	169465	204878	0
1651053511663	-26.352	-7.32	1022.36	0.42	-0.21	0.42	136.5	174	-880.5	0	0	0	0	0	0	0	0	0	0	0	0	0	0	0	0	0	0	169460	204882	0
1651053511673	-22.936	-4.392	1015.528	0.35	-0.21	0.42	138	175.5	-882	0	0	0	0	0	0	0	0	0	0	0	0	0	0	0	0	0	0	169451	204872	0
1651053511683	-24.888	-10.248	1019.432	0.35	-0.35	0.42	139.5	172.5	-883.5	0	0	0	0	0	0	0	0	0	0	0	0	0	0	0	0	0	0	169433	204872	0
1651053511693	-31.72	-2.44	1023.824	0.42	-0.28	0.42	139.5	174	-889.5	0	0	0	0	0	0	0	0	0	0	0	0	0	0	0	0	0	0	169444	204869	0
1651053511703	-18.544	-1.464	1020.408	0.35	-0.28	0.49	141	178.5	-886.5	0	0	0	0	0	0	0	0	0	0	0	0	0	0	0	0	0	0	169439	204873	0
1651053511713	-25.376	-4.392	1023.336	0.35	-0.28	0.42	141	175.5	-882	0	0	0	0	0	0	0	0	0	0	0	0	0	0	0	0	0	0	169434	204861	0
1651053511723	-22.936	-6.344	1021.384	0.42	-0.28	0.42	138	171	-886.5	0	0	0	0	0	0	0	0	0	0	0	0	0	0	0	0	0	0	169427	204847	0
1651053511733	-22.448	-3.904	1023.336	0.35	-0.21	0.35	138	171	-886.5	0	0	0	0	0	0	0	0	0	0	0	0	0	0	0	0	0	0	169396	204839	0
1651053511743	-17.568	-1.464	1020.896	0.42	-0.21	0.35	141	178.5	-883.5	0	0	0	0	0	0	0	0	0	0	0	0	0	0	0	0	0	0	169390	204820	0
1651053511753	-32.696	-1.464	1023.824	0.35	-0.28	0.35	133.5	178.5	-883.5	0	0	0	0	0	0	0	0	0	0	0	0	0	0	0	0	0	0	169378	204797	0
1651053511763	-26.84	-9.76	1020.408	0.28	-0.28	0.42	135	178.5	-889.5	0	0	0	0	0	0	0	0	0	0	0	0	0	0	0	0	0	0	169367	204788	0
1651053511773	-26.84	-4.392	1021.384	0.42	-0.28	0.35	138	177	-886.5	0	0	0	0	0	0	0	0	0	0	0	0	0	0	0	0	0	0	169367	204782	0
1651053511783	-29.768	-13.664	1018.944	0.35	-0.35	0.35	139.5	171	-880.5	0	0	0	0	0	0	0	0	0	0	0	0	0	0	0	0	0	0	169354	204788	0
1651053511793	-22.936	-13.176	1017.48	0.35	-0.21	0.35	144	175.5	-888	0	0	0	0	0	0	0	0	0	0	0	0	0	0	0	0	0	0	169349	204778	0
1651053511803	-23.912	-14.64	1020.896	0.28	-0.35	0.42	138	174	-885	0	0	0	0	0	0	0	0	0	0	0	0	0	0	0	0	0	0	169327	204754	0
1651053511813	-20.496	-9.272	1016.504	0.28	-0.28	0.35	133.5	171	-883.5	0	0	0	0	0	0	0	0	0	0	0	0	0	0	0	0	0	0	169332	204766	0
1651053511823	-21.96	-11.712	1028.216	0.35	-0.28	0.42	130.5	169.5	-880.5	0	0	0	0	0	0	0	0	0	0	0	0	0	0	0	0	0	0	169319	204753	0
1651053511833	-27.328	3.904	1023.824	0.49	-0.21	0.35	136.5	169.5	-886.5	0	0	0	0	0	0	0	0	0	0	0	0	0	0	0	0	0	0	169317	204741	0
1651053511843	-26.84	-9.76	1036.512	0.28	-0.35	0.42	139.5	175.5	-894	0	0	0	0	0	0	0	0	0	0	0	0	0	0	0	0	0	0	169306	204745	0
1651053511853	-33.184	-18.056	1012.6	0.28	-0.42	0.49	136.5	175.5	-883.5	0	0	0	0	0	0	0	0	0	0	0	0	0	0	0	0	0	0	169293	204731	0
1651053511863	-24.888	-12.2	1017.48	0.28	-0.35	0.49	133.5	171	-886.5	0	0	0	0	0	0	0	0	0	0	0	0	0	0	0	0	0	0	169275	204729	0
1651053511873	-24.888	1.464	1030.656	0.49	-0.14	0.42	138	174	-885	0	0	0	0	0	0	0	0	0	0	0	0	0	0	0	0	0	0	169280	204730	0
1651053511883	-28.304	-3.904	1026.752	0.35	-0.21	0.42	138	172.5	-879	0	0	0	0	0	0	0	0	0	0	0	0	0	0	0	0	0	0	169266	204741	0
1651053511893	-14.152	-5.856	1017.968	0.35	-0.28	0.42	135	174	-880.5	0	0	0	0	0	0	0	0	0	0	0	0	0	0	0	0	0	0	169249	204752	0
1651053511903	-32.696	-11.712	1018.944	0.35	-0.21	0.42	133.5	171	-882	0	0	0	0	0	0	0	0	0	0	0	0	0	0	0	0	0	0	169237	204767	0
1651053511913	-28.304	-3.416	1027.728	0.42	-0.21	0.42	139.5	169.5	-886.5	0	0	0	0	0	0	0	0	0	0	0	0	0	0	0	0	0	0	169238	204749	0
1651053511923	-19.52	-12.688	1003.328	0.35	-0.28	0.42	145.5	175.5	-880.5	0	0	0	0	0	0	0	0	0	0	0	0	0	0	0	0	0	0	169219	204725	0
1651053511933	-22.448	-16.104	1028.216	0.28	-0.35	0.42	141	175.5	-880.5	0	0	0	0	0	0	0	0	0	0	0	0	0	0	0	0	0	0	169197	204723	0
1651053511943	-27.328	-5.856	1024.8	0.28	-0.28	0.49	136.5	174	-885	0	0	0	0	0	0	0	0	0	0	0	0	0	0	0	0	0	0	169186	204704	0
1651053511953	-21.96	-4.392	1028.216	0.28	-0.28	0.35	133.5	171	-880.5	0	0	0	0	0	0	0	0	0	0	0	0	0	0	0	0	0	0	169181	204676	0
1651053511963	-21.96	-4.88	1022.36	0.42	-0.28	0.28	133.5	175.5	-883.5	0	0	0	0	0	0	0	0	0	0	0	0	0	0	0	0	0	0	169171	204643	0
1651053511973	-20.496	-13.176	1023.336	0.42	-0.28	0.35	138	174	-879	0	0	0	0	0	0	0	0	0	0	0	0	0	0	0	0	0	0	169154	204590	0
1651053511983	-22.448	-2.928	1020.408	0.42	-0.21	0.42	142.5	171	-879	0	0	0	0	0	0	0	0	0	0	0	0	0	0	0	0	0	0	169128	204526	0
1651053511993	-20.496	-15.128	1020.408	0.42	-0.28	0.56	139.5	175.5	-889.5	0	0	0	0	0	0	0	0	0	0	0	0	0	0	0	0	0	0	169115	204437	0
1651053512003	-28.304	1.464	1031.144	0.35	-0.35	0.42	133.5	180	-886.5	0	0	0	0	0	0	0	0	0	0	0	0	0	0	0	0	0	0	169081	204396	0
1651053512013	-27.328	-12.2	1019.432	0.35	-0.21	0.42	136.5	177	-880.5	0	0	0	0	0	0	0	0	0	0	0	0	0	0	0	0	0	0	169049	204322	0
1651053512023	-18.056	-2.44	1012.112	0.42	-0.14	0.42	138	172.5	-883.5	0	0	0	0	0	0	0	0	0	0	0	0	0	0	0	0	0	0	169030	204283	0
1651053512033	-25.376	0.488	1035.048	0.28	-0.28	0.35	135	172.5	-883.5	0	0	0	0	0	0	0	0	0	0	0	0	0	0	0	0	0	0	169032	204258	0
1651053512043	-15.616	-14.64	1016.992	0.35	-0.35	0.42	138	174	-882	0	0	0	0	0	0	0	0	0	0	0	0	0	0	0	0	0	0	169033	204240	0
1651053512053	-30.256	-7.808	1013.088	0.42	-0.28	0.42	136.5	174	-877.5	0	0	0	0	0	0	0	0	0	0	0	0	0	0	0	0	0	0	169035	204243	0
1651053512063	-23.424	-8.296	1016.016	0.35	-0.28	0.42	136.5	177	-882	0	0	0	0	0	0	0	0	0	0	0	0	0	0	0	0	0	0	169028	204255	0
1651053512073	-16.592	-9.76	1017.968	0.49	-0.21	0.42	135	175.5	-880.5	0	0	0	0	0	0	0	0	0	0	0	0	0	0	0	0	0	0	169028	204285	0
1651053512083	-22.936	-6.344	1024.8	0.35	-0.28	0.35	142.5	172.5	-879	0	0	0	0	0	0	0	0	0	0	0	0	0	0	0	0	0	0	169029	204315	0
1651053512093	-20.008	-3.416	1011.624	0.35	-0.21	0.42	141	174	-886.5	0	0	0	0	0	0	0	0	0	0	0	0	0	0	0	0	0	0	169032	204339	0
1651053512103	-21.472	-14.152	1030.168	0.28	-0.35	0.42	136.5	174	-886.5	0	0	0	0	0	0	0	0	0	0	0	0	0	0	0	0	0	0	169033	204358	0
1651053512113	-31.72	-3.904	1022.36	0.42	-0.21	0.56	135	172.5	-882	0	0	0	0	0	0	0	0	0	0	0	0	0	0	0	0	0	0	169034	204381	0
1651053512123	-26.352	-2.928	1012.6	0.42	-0.28	0.42	136.5	178.5	-882	0	0	0	0	0	0	0	0	0	0	0	0	0	0	0	0	0	0	169048	204408	0
1651053512133	-29.28	-4.392	1024.312	0.35	-0.28	0.35	138	175.5	-877.5	0	0	0	0	0	0	0	0	0	0	0	0	0	0	0	0	0	0	169062	204435	0
1651053512143	-19.032	-11.712	1021.872	0.28	-0.28	0.49	139.5	172.5	-880.5	0	0	0	0	0	0	0	0	0	0	0	0	0	0	0	0	0	0	169063	204441	0
1651053512153	-29.768	-19.032	1015.528	0.42	-0.28	0.28	138	171	-885	0	0	0	0	0	0	0	0	0	0	0	0	0	0	0	0	0	0	169056	204437	0
1651053512163	-18.056	-1.952	1014.552	0.28	-0.28	0.42	135	177	-883.5	0	0	0	0	0	0	0	0	0	0	0	0	0	0	0	0	0	0	169057	204457	0
1651053512173	-22.936	1.464	1020.896	0.28	-0.21	0.35	136.5	180	-880.5	0	0	0	0	0	0	0	0	0	0	0	0	0	0	0	0	0	0	169066	204472	0
1651053512183	-27.328	-1.952	1019.92	0.35	-0.14	0.49	136.5	177	-886.5	0	0	0	0	0	0	0	0	0	0	0	0	0	0	0	0	0	0	169061	204473	0
1651053512193	-22.448	-7.808	1018.456	0.35	-0.28	0.42	133.5	178.5	-891	0	0	0	0	0	0	0	0	0	0	0	0	0	0	0	0	0	0	169066	204455	0
1651053512203	-23.912	-6.344	1021.384	0.35	-0.14	0.42	136.5	181.5	-888	0	0	0	0	0	0	0	0	0	0	0	0	0	0	0	0	0	0	169066	204465	0
1651053512213	-17.568	-6.832	1025.288	0.35	-0.21	0.35	139.5	177	-889.5	0	0	0	0	0	0	0	0	0	0	0	0	0	0	0	0	0	0	169073	204463	0
1651053512223	-28.304	-11.712	1028.216	0.35	-0.28	0.42	141	174	-889.5	0	0	0	0	0	0	0	0	0	0	0	0	0	0	0	0	0	0	169086	204462	0
1651053512233	-19.52	-5.856	1017.48	0.28	-0.28	0.42	138	177	-886.5	0	0	0	0	0	0	0	0	0	0	0	0	0	0	0	0	0	0	169090	204447	0
1651053512243	-26.352	-11.712	1023.824	0.49	-0.14	0.42	138	177	-883.5	0	0	0	0	0	0	0	0	0	0	0	0	0	0	0	0	0	0	169085	204435	0
1651053512253	-23.424	-6.344	1022.36	0.42	-0.28	0.35	144	174	-882	0	0	0	0	0	0	0	0	0	0	0	0	0	0	0	0	0	0	169084	204436	0
1651053512263	-20.008	-6.344	1022.848	0.42	-0.28	0.42	139.5	171	-882	0	0	0	0	0	0	0	0	0	0	0	0	0	0	0	0	0	0	169079	204445	0
1651053512273	-22.936	-2.44	1024.8	0.42	-0.28	0.42	138	177	-886.5	0	0	0	0	0	0	0	0	0	0	0	0	0	0	0	0	0	0	169077	204436	0
1651053512283	-27.328	-6.344	1017.968	0.42	-0.21	0.49	135	172.5	-888	0	0	0	0	0	0	0	0	0	0	0	0	0	0	0	0	0	0	169069	204436	0
1651053512293	-28.792	-7.808	1022.36	0.42	-0.35	0.35	130.5	171	-886.5	0	0	0	0	0	0	0	0	0	0	0	0	0	0	0	0	0	0	169052	204436	0
1651053512303	-23.912	-7.808	1016.504	0.35	-0.21	0.35	136.5	174	-891	0	0	0	0	0	0	0	0	0	0	0	0	0	0	0	0	0	0	169043	204423	0
1651053512313	-22.936	-4.392	1023.336	0.42	-0.28	0.42	138	172.5	-886.5	0	0	0	0	0	0	0	0	0	0	0	0	0	0	0	0	0	0	169040	204438	0
1651053512323	-21.96	-7.808	1020.408	0.28	-0.28	0.35	141	169.5	-885	0	0	0	0	0	0	0	0	0	0	0	0	0	0	0	0	0	0	169037	204448	0
1651053512333	-24.888	-6.832	1015.04	0.28	-0.28	0.35	139.5	171	-882	0	0	0	0	0	0	0	0	0	0	0	0	0	0	0	0	0	0	169043	204444	0
1651053512343	-24.888	-6.832	1022.848	0.49	-0.21	0.42	139.5	174	-885	0	0	0	0	0	0	0	0	0	0	0	0	0	0	0	0	0	0	169035	204453	0
1651053512353	-22.448	-10.248	1020.896	0.28	-0.28	0.35	138	175.5	-883.5	0	0	0	0	0	0	0	0	0	0	0	0	0	0	0	0	0	0	169012	204437	0
1651053512363	-25.864	-6.344	1024.312	0.35	-0.21	0.42	139.5	177	-885	0	0	0	0	0	0	0	0	0	0	0	0	0	0	0	0	0	0	169017	204444	0
1651053512373	-17.568	-9.272	1021.384	0.42	-0.28	0.35	144	178.5	-885	0	0	0	0	0	0	0	0	0	0	0	0	0	0	0	0	0	0	169006	204428	0
1651053512383	-20.984	-3.416	1016.016	0.49	-0.28	0.42	141	178.5	-883.5	0	0	0	0	0	0	0	0	0	0	0	0	0	0	0	0	0	0	169003	204411	0
1651053512393	-21.472	-5.856	1022.848	0.42	-0.42	0.35	136.5	177	-886.5	0	0	0	0	0	0	0	0	0	0	0	0	0	0	0	0	0	0	169005	204415	0
1651053512403	-26.352	-9.76	1024.312	0.42	-0.21	0.35	138	175.5	-883.5	0	0	0	0	0	0	0	0	0	0	0	0	0	0	0	0	0	0	168990	204403	0
1651053512413	-26.352	-8.296	1021.872	0.28	-0.21	0.49	141	171	-888	0	0	0	0	0	0	0	0	0	0	0	0	0	0	0	0	0	0	168990	204383	0
1651053512424	-18.544	-9.272	1022.36	0.28	-0.21	0.35	139.5	171	-891	0	0	0	0	0	0	0	0	0	0	0	0	0	0	0	0	0	0	168986	204391	0
1651053512434	-21.96	-7.32	1019.92	0.42	-0.14	0.42	136.5	174	-889.5	0	0	0	0	0	0	0	0	0	0	0	0	0	0	0	0	0	0	169001	204373	0
1651053512444	-27.816	-8.296	1024.312	0.14	-0.28	0.35	130.5	172.5	-885	0	0	0	0	0	0	0	0	0	0	0	0	0	0	0	0	0	0	168988	204383	0
1651053512454	-20.008	-8.784	1022.36	0.42	-0.21	0.49	136.5	177	-886.5	0	0	0	0	0	0	0	0	0	0	0	0	0	0	0	0	0	0	168988	204374	0
1651053512464	-20.496	1.464	1021.872	0.42	-0.21	0.42	135	174	-885	0	0	0	0	0	0	0	0	0	0	0	0	0	0	0	0	0	0	168986	204360	0
1651053512474	-25.376	-0.976	1017.48	0.42	-0.21	0.42	136.5	171	-886.5	0	0	0	0	0	0	0	0	0	0	0	0	0	0	0	0	0	0	168973	204355	0
1651053512484	-22.936	-4.88	1023.824	0.42	-0.21	0.35	145.5	175.5	-886.5	0	0	0	0	0	0	0	0	0	0	0	0	0	0	0	0	0	0	168973	204359	0
1651053512494	-19.032	-6.832	1026.264	0.42	-0.28	0.42	139.5	178.5	-882	0	0	0	0	0	0	0	0	0	0	0	0	0	0	0	0	0	0	168961	204363	0
1651053512504	-22.936	-10.248	1022.848	0.42	-0.21	0.35	135	172.5	-882	0	0	0	0	0	0	0	0	0	0	0	0	0	0	0	0	0	0	168954	204362	0
1651053512514	-26.352	-4.88	1024.312	0.21	-0.28	0.42	135	174	-883.5	0	0	0	0	0	0	0	0	0	0	0	0	0	0	0	0	0	0	168945	204344	0
1651053512524	-33.184	-7.808	1022.36	0.63	-0.14	0.42	133.5	174	-882	0	0	0	0	0	0	0	0	0	0	0	0	0	0	0	0	0	0	168944	204352	0
1651053512534	-22.448	-5.856	1021.872	0.28	-0.28	0.35	136.5	172.5	-883.5	0	0	0	0	0	0	0	0	0	0	0	0	0	0	0	0	0	0	168928	204342	0
1651053512544	-25.376	-0.976	1027.24	0.42	-0.28	0.35	139.5	174	-885	0	0	0	0	0	0	0	0	0	0	0	0	0	0	0	0	0	0	168923	204348	0
1651053512554	-29.28	-4.88	1023.824	0.35	-0.21	0.42	136.5	174	-882	0	0	0	0	0	0	0	0	0	0	0	0	0	0	0	0	0	0	168897	204352	0
1651053512564	-27.328	-6.832	1022.848	0.35	-0.28	0.42	138	177	-882	0	0	0	0	0	0	0	0	0	0	0	0	0	0	0	0	0	0	168923	204339	0
1651053512574	-20.984	-7.32	1022.848	0.42	-0.28	0.42	132	175.5	-886.5	0	0	0	0	0	0	0	0	0	0	0	0	0	0	0	0	0	0	168924	204327	0
1651053512584	-28.792	-9.76	1022.36	0.35	-0.21	0.42	130.5	175.5	-885	0	0	0	0	0	0	0	0	0	0	0	0	0	0	0	0	0	0	168924	204340	0
1651053512594	-27.816	-6.832	1019.432	0.42	-0.28	0.35	130.5	175.5	-880.5	0	0	0	0	0	0	0	0	0	0	0	0	0	0	0	0	0	0	168907	204323	0
1651053512604	-21.472	-10.736	1017.48	0.21	-0.21	0.42	133.5	172.5	-886.5	0	0	0	0	0	0	0	0	0	0	0	0	0	0	0	0	0	0	168909	204292	0
1651053512614	-20.984	-9.272	1024.312	0.49	-0.14	0.42	138	174	-886.5	0	0	0	0	0	0	0	0	0	0	0	0	0	0	0	0	0	0	168914	204286	0
1651053512624	-33.672	-5.368	1023.336	0.28	-0.35	0.42	138	177	-888	0	0	0	0	0	0	0	0	0	0	0	0	0	0	0	0	0	0	168913	204279	0
1651053512634	-31.232	-10.736	1021.384	0.35	-0.14	0.42	138	172.5	-885	0	0	0	0	0	0	0	0	0	0	0	0	0	0	0	0	0	0	168913	204286	0
1651053512644	-23.912	-8.784	1022.36	0.35	-0.21	0.42	138	169.5	-882	0	0	0	0	0	0	0	0	0	0	0	0	0	0	0	0	0	0	168912	204282	0
1651053512654	-22.448	-13.176	1020.896	0.42	-0.21	0.49	136.5	172.5	-885	0	0	0	0	0	0	0	0	0	0	0	0	0	0	0	0	0	0	168886	204277	0
1651053512664	-26.352	-14.64	1020.896	0.28	-0.14	0.42	136.5	172.5	-885	0	0	0	0	0	0	0	0	0	0	0	0	0	0	0	0	0	0	168894	204256	0
1651053512674	-20.984	-6.832	1020.408	0.35	-0.21	0.42	139.5	177	-885	0	0	0	0	0	0	0	0	0	0	0	0	0	0	0	0	0	0	168878	204258	0
1651053512684	-28.304	-6.344	1019.432	0.14	-0.21	0.42	139.5	174	-885	0	0	0	0	0	0	0	0	0	0	0	0	0	0	0	0	0	0	168862	204254	0
1651053512694	-22.936	-4.88	1020.408	0.35	-0.35	0.42	138	172.5	-886.5	0	0	0	0	0	0	0	0	0	0	0	0	0	0	0	0	0	0	168850	204216	0
1651053512704	-28.792	-7.808	1022.36	0.49	-0.14	0.42	135	174	-886.5	0	0	0	0	0	0	0	0	0	0	0	0	0	0	0	0	0	0	168828	204181	0
1651053512714	-18.544	-1.952	1017.48	0.21	-0.35	0.49	138	174	-883.5	0	0	0	0	0	0	0	0	0	0	0	0	0	0	0	0	0	0	168803	204140	0
1651053512724	-25.376	-4.392	1018.456	0.35	-0.28	0.35	139.5	172.5	-880.5	0	0	0	0	0	0	0	0	0	0	0	0	0	0	0	0	0	0	168777	204098	0
1651053512734	-30.744	-6.344	1019.92	0.42	-0.28	0.28	135	168	-880.5	0	0	0	0	0	0	0	0	0	0	0	0	0	0	0	0	0	0	168750	204035	0
1651053512744	-30.256	-5.856	1022.848	0.35	-0.14	0.28	130.5	166.5	-883.5	0	0	0	0	0	0	0	0	0	0	0	0	0	0	0	0	0	0	168732	203996	0
1651053512754	-21.472	-6.832	1024.8	0.35	-0.21	0.42	135	174	-883.5	0	0	0	0	0	0	0	0	0	0	0	0	0	0	0	0	0	0	168720	203964	0
1651053512764	-20.984	-8.296	1022.848	0.35	-0.28	0.42	141	178.5	-877.5	0	0	0	0	0	0	0	0	0	0	0	0	0	0	0	0	0	0	168714	203945	0
1651053512774	-26.352	-3.904	1027.728	0.42	-0.28	0.28	144	178.5	-876	0	0	0	0	0	0	0	0	0	0	0	0	0	0	0	0	0	0	168721	203928	0
1651053512784	-23.912	-4.88	1021.872	0.49	-0.21	0.35	144	171	-874.5	0	0	0	0	0	0	0	0	0	0	0	0	0	0	0	0	0	0	168732	203924	0
1651053512794	-25.864	-6.344	1018.944	0.35	-0.28	0.49	144	169.5	-880.5	0	0	0	0	0	0	0	0	0	0	0	0	0	0	0	0	0	0	168722	203928	0
1651053512804	-19.032	-11.224	1021.872	0.42	-0.21	0.42	139.5	172.5	-883.5	0	0	0	0	0	0	0	0	0	0	0	0	0	0	0	0	0	0	168733	203930	0
1651053512814	-30.256	-14.152	1027.24	0.35	-0.21	0.35	136.5	172.5	-885	0	0	0	0	0	0	0	0	0	0	0	0	0	0	0	0	0	0	168730	203933	0
1651053512824	-15.616	-2.928	1021.872	0.35	-0.14	0.42	139.5	174	-885	0	0	0	0	0	0	0	0	0	0	0	0	0	0	0	0	0	0	168745	203934	0
1651053512834	-13.664	-6.832	1017.968	0.42	-0.28	0.42	138	174	-883.5	0	0	0	0	0	0	0	0	0	0	0	0	0	0	0	0	0	0	168750	203961	0
1651053512844	-26.84	-6.832	1018.944	0.49	-0.21	0.56	135	174	-880.5	0	0	0	0	0	0	0	0	0	0	0	0	0	0	0	0	0	0	168758	203955	0
1651053512854	-22.448	-4.392	1019.432	0.35	-0.28	0.42	136.5	174	-880.5	0	0	0	0	0	0	0	0	0	0	0	0	0	0	0	0	0	0	168750	203973	0
1651053512864	-29.768	-5.856	1017.968	0.35	-0.28	0.35	135	177	-883.5	0	0	0	0	0	0	0	0	0	0	0	0	0	0	0	0	0	0	168760	203997	0
1651053512874	-26.84	-6.344	1024.8	0.49	-0.21	0.35	129	180	-883.5	0	0	0	0	0	0	0	0	0	0	0	0	0	0	0	0	0	0	168759	204022	0
1651053512884	-22.448	-4.392	1016.992	0.35	-0.28	0.42	133.5	177	-883.5	0	0	0	0	0	0	0	0	0	0	0	0	0	0	0	0	0	0	168756	204049	0
1651053512894	-19.032	-0.976	1022.848	0.42	-0.21	0.42	136.5	174	-885	0	0	0	0	0	0	0	0	0	0	0	0	0	0	0	0	0	0	168737	204065	0
1651053512904	-25.864	-9.272	1020.896	0.42	-0.21	0.49	132	168	-885	0	0	0	0	0	0	0	0	0	0	0	0	0	0	0	0	0	0	168742	204085	0
1651053512914	-10.248	-4.392	1018.944	0.49	-0.21	0.42	130.5	168	-885	0	0	0	0	0	0	0	0	0	0	0	0	0	0	0	0	0	0	168727	204087	0
1651053512924	-29.768	-3.416	1020.408	0.35	-0.21	0.35	138	174	-882	0	0	0	0	0	0	0	0	0	0	0	0	0	0	0	0	0	0	168720	204082	0
1651053512934	-26.352	-3.904	1030.168	0.28	-0.21	0.42	138	180	-888	0	0	0	0	0	0	0	0	0	0	0	0	0	0	0	0	0	0	168718	204074	0
1651053512944	-24.888	-11.224	1022.36	0.28	-0.28	0.42	135	175.5	-885	0	0	0	0	0	0	0	0	0	0	0	0	0	0	0	0	0	0	168711	204089	0
1651053512954	-25.864	-12.2	1023.824	0.42	-0.35	0.42	136.5	171	-885	0	0	0	0	0	0	0	0	0	0	0	0	0	0	0	0	0	0	168708	204079	0
1651053512964	-25.376	-6.344	1020.896	0.49	-0.21	0.49	138	169.5	-889.5	0	0	0	0	0	0	0	0	0	0	0	0	0	0	0	0	0	0	168703	204064	0
1651053512974	-21.96	0	1023.824	0.42	-0.14	0.56	139.5	168	-888	0	0	0	0	0	0	0	0	0	0	0	0	0	0	0	0	0	0	168709	204042	0
1651053512984	-24.4	-9.272	1020.408	0.28	-0.28	0.56	133.5	171	-883.5	0	0	0	0	0	0	0	0	0	0	0	0	0	0	0	0	0	0	168696	204025	0
1651053512994	-30.256	-10.248	1026.752	0.42	-0.21	0.42	135	168	-883.5	0	0	0	0	0	0	0	0	0	0	0	0	0	0	0	0	0	0	168699	204005	0
1651053513004	-20.496	-8.784	1015.528	0.35	-0.21	0.35	136.5	174	-879	0	0	0	0	0	0	0	0	0	0	0	0	0	0	0	0	0	0	168701	203974	0
1651053513014	-24.4	-7.32	1018.456	0.35	-0.28	0.42	136.5	178.5	-879	0	0	0	0	0	0	0	0	0	0	0	0	0	0	0	0	0	0	168706	203973	0
1651053513024	-10.736	-4.392	1017.48	0.35	-0.35	0.35	141	175.5	-886.5	0	0	0	0	0	0	0	0	0	0	0	0	0	0	0	0	0	0	168712	203969	0
1651053513034	-20.496	1.464	1026.264	0.42	-0.28	0.42	141	174	-885	0	0	0	0	0	0	0	0	0	0	0	0	0	0	0	0	0	0	168691	203966	0
1651053513044	-20.008	-5.368	1024.312	0.42	-0.28	0.42	135	174	-883.5	0	0	0	0	0	0	0	0	0	0	0	0	0	0	0	0	0	0	168692	203960	0
1651053513054	-23.424	-7.32	1019.432	0.28	-0.14	0.42	138	172.5	-885	0	0	0	0	0	0	0	0	0	0	0	0	0	0	0	0	0	0	168698	203956	0
1651053513064	-24.4	-4.392	1027.24	0.42	-0.35	0.42	136.5	172.5	-882	0	0	0	0	0	0	0	0	0	0	0	0	0	0	0	0	0	0	168672	203943	0
1651053513074	-20.496	-2.928	1019.92	0.28	-0.28	0.35	130.5	175.5	-879	0	0	0	0	0	0	0	0	0	0	0	0	0	0	0	0	0	0	168669	203964	0
1651053513084	-30.744	-11.712	1027.24	0.35	-0.21	0.28	132	178.5	-886.5	0	0	0	0	0	0	0	0	0	0	0	0	0	0	0	0	0	0	168661	203958	0
1651053513094	-23.424	-8.296	1018.944	0.35	-0.28	0.28	132	177	-886.5	0	0	0	0	0	0	0	0	0	0	0	0	0	0	0	0	0	0	168655	203967	0
1651053513104	-19.032	-4.88	1023.824	0.35	-0.28	0.35	142.5	172.5	-879	0	0	0	0	0	0	0	0	0	0	0	0	0	0	0	0	0	0	168637	203977	0
1651053513114	-29.28	-6.344	1024.312	0.42	-0.28	0.42	145.5	172.5	-882	0	0	0	0	0	0	0	0	0	0	0	0	0	0	0	0	0	0	168620	203972	0
1651053513124	-23.424	-3.904	1027.728	0.28	-0.21	0.42	138	174	-886.5	0	0	0	0	0	0	0	0	0	0	0	0	0	0	0	0	0	0	168617	203981	0
1651053513134	-28.792	-4.392	1021.384	0.49	-0.28	0.35	138	178.5	-888	0	0	0	0	0	0	0	0	0	0	0	0	0	0	0	0	0	0	168608	203990	0
1651053513144	-22.936	-7.808	1020.408	0.42	-0.21	0.42	135	180	-885	0	0	0	0	0	0	0	0	0	0	0	0	0	0	0	0	0	0	168600	203993	0
1651053513154	-19.032	-9.76	1018.456	0.42	-0.21	0.42	136.5	180	-883.5	0	0	0	0	0	0	0	0	0	0	0	0	0	0	0	0	0	0	168594	203982	0
1651053513164	-19.032	-12.688	1026.264	0.42	-0.35	0.35	142.5	175.5	-886.5	0	0	0	0	0	0	0	0	0	0	0	0	0	0	0	0	0	0	168585	203982	0
1651053513174	-23.912	-13.176	1019.92	0.35	-0.21	0.35	141	175.5	-882	0	0	0	0	0	0	0	0	0	0	0	0	0	0	0	0	0	0	168593	203990	0
1651053513184	-23.912	-7.32	1019.92	0.42	-0.28	0.42	135	178.5	-880.5	0	0	0	0	0	0	0	0	0	0	0	0	0	0	0	0	0	0	168602	203972	0
1651053513194	-32.208	-8.784	1014.552	0.35	-0.21	0.49	132	178.5	-879	0	0	0	0	0	0	0	0	0	0	0	0	0	0	0	0	0	0	168589	203940	0
1651053513204	-26.352	-2.44	1020.408	0.35	-0.28	0.42	138	180	-877.5	0	0	0	0	0	0	0	0	0	0	0	0	0	0	0	0	0	0	168608	203926	0
1651053513214	-38.064	-4.88	1016.504	0.35	-0.21	0.35	136.5	174	-883.5	0	0	0	0	0	0	0	0	0	0	0	0	0	0	0	0	0	0	168597	203917	0
1651053513224	-33.672	-6.832	1015.528	0.35	-0.28	0.35	138	177	-886.5	0	0	0	0	0	0	0	0	0	0	0	0	0	0	0	0	0	0	168602	203914	0
1651053513234	-25.864	-0.488	1026.264	0.35	-0.28	0.35	144	178.5	-882	0	0	0	0	0	0	0	0	0	0	0	0	0	0	0	0	0	0	168592	203899	0
1651053513244	-16.104	-7.32	1021.872	0.35	-0.21	0.35	142.5	171	-882	0	0	0	0	0	0	0	0	0	0	0	0	0	0	0	0	0	0	168599	203893	0
1651053513254	-28.304	-10.736	1019.92	0.28	-0.28	0.42	138	171	-882	0	0	0	0	0	0	0	0	0	0	0	0	0	0	0	0	0	0	168581	203883	0
1651053513265	-26.84	-9.272	1028.216	0.42	-0.21	0.35	135	177	-883.5	0	0	0	0	0	0	0	0	0	0	0	0	0	0	0	0	0	0	168590	203911	0
1651053513275	-24.4	-2.928	1024.312	0.35	-0.28	0.49	135	174	-885	0	0	0	0	0	0	0	0	0	0	0	0	0	0	0	0	0	0	168574	203913	0
1651053513285	-26.84	-2.44	1018.456	0.35	-0.28	0.49	133.5	172.5	-889.5	0	0	0	0	0	0	0	0	0	0	0	0	0	0	0	0	0	0	168578	203930	0
1651053513295	-30.744	-9.76	1026.752	0.35	-0.14	0.42	135	175.5	-886.5	0	0	0	0	0	0	0	0	0	0	0	0	0	0	0	0	0	0	168563	203933	0
1651053513305	-20.984	-13.664	1018.944	0.42	-0.28	0.42	141	169.5	-885	0	0	0	0	0	0	0	0	0	0	0	0	0	0	0	0	0	0	168554	203942	0
1651053513315	-22.936	-9.76	1023.824	0.28	-0.21	0.42	139.5	168	-885	0	0	0	0	0	0	0	0	0	0	0	0	0	0	0	0	0	0	168537	203937	0
1651053513325	-29.768	-13.664	1018.456	0.42	-0.28	0.35	138	172.5	-880.5	0	0	0	0	0	0	0	0	0	0	0	0	0	0	0	0	0	0	168521	203932	0
1651053513335	-22.936	-13.176	1023.824	0.28	-0.21	0.42	139.5	168	-882	0	0	0	0	0	0	0	0	0	0	0	0	0	0	0	0	0	0	168522	203936	0
1651053513345	-21.96	-2.928	1021.872	0.35	-0.28	0.35	135	168	-888	0	0	0	0	0	0	0	0	0	0	0	0	0	0	0	0	0	0	168526	203913	0
1651053513355	-25.376	-4.392	1018.944	0.35	-0.21	0.35	138	169.5	-885	0	0	0	0	0	0	0	0	0	0	0	0	0	0	0	0	0	0	168524	203903	0
1651053513365	-26.352	-4.392	1020.896	0.21	-0.21	0.42	142.5	175.5	-886.5	0	0	0	0	0	0	0	0	0	0	0	0	0	0	0	0	0	0	168521	203884	0
1651053513375	-22.448	-3.416	1017.48	0.35	-0.21	0.42	144	177	-891	0	0	0	0	0	0	0	0	0	0	0	0	0	0	0	0	0	0	168518	203884	0
1651053513385	-25.864	-2.928	1021.872	0.42	-0.21	0.42	144	174	-892.5	0	0	0	0	0	0	0	0	0	0	0	0	0	0	0	0	0	0	168518	203861	0
1651053513395	-23.424	-4.88	1016.992	0.42	-0.35	0.49	138	174	-888	0	0	0	0	0	0	0	0	0	0	0	0	0	0	0	0	0	0	168514	203815	0
1651053513405	-23.912	-5.856	1023.336	0.42	-0.28	0.49	136.5	169.5	-883.5	0	0	0	0	0	0	0	0	0	0	0	0	0	0	0	0	0	0	168483	203742	0
1651053513415	-26.84	-7.32	1019.432	0.35	-0.21	0.35	136.5	165	-886.5	0	0	0	0	0	0	0	0	0	0	0	0	0	0	0	0	0	0	168465	203687	0
1651053513425	-21.96	-3.904	1015.04	0.35	-0.21	0.42	135	172.5	-883.5	0	0	0	0	0	0	0	0	0	0	0	0	0	0	0	0	0	0	168436	203600	0
1651053513435	-21.96	-2.928	1016.992	0.42	-0.21	0.28	138	177	-883.5	0	0	0	0	0	0	0	0	0	0	0	0	0	0	0	0	0	0	168410	203569	0
1651053513445	-22.936	-8.784	1024.8	0.42	-0.21	0.42	141	177	-885	0	0	0	0	0	0	0	0	0	0	0	0	0	0	0	0	0	0	168407	203496	0
1651053513455	-29.28	-4.392	1023.336	0.35	-0.35	0.42	138	177	-880.5	0	0	0	0	0	0	0	0	0	0	0	0	0	0	0	0	0	0	168390	203477	0
1651053513465	-19.032	-1.952	1020.408	0.35	-0.28	0.42	139.5	178.5	-883.5	0	0	0	0	0	0	0	0	0	0	0	0	0	0	0	0	0	0	168373	203442	0
1651053513475	-32.208	-3.904	1015.528	0.35	-0.28	0.42	139.5	175.5	-883.5	0	0	0	0	0	0	0	0	0	0	0	0	0	0	0	0	0	0	168371	203432	0
1651053513485	-20.496	-3.904	1023.336	0.35	-0.14	0.35	139.5	174	-885	0	0	0	0	0	0	0	0	0	0	0	0	0	0	0	0	0	0	168375	203447	0
1651053513495	-35.136	-6.832	1023.824	0.35	-0.28	0.42	136.5	171	-885	0	0	0	0	0	0	0	0	0	0	0	0	0	0	0	0	0	0	168355	203446	0
1651053513505	-23.912	-8.296	1023.336	0.35	-0.21	0.42	129	169.5	-885	0	0	0	0	0	0	0	0	0	0	0	0	0	0	0	0	0	0	168362	203482	0
1651053513515	-20.984	-2.928	1018.456	0.42	-0.28	0.42	132	175.5	-888	0	0	0	0	0	0	0	0	0	0	0	0	0	0	0	0	0	0	168345	203506	0
1651053513525	-24.4	-0.488	1017.968	0.42	-0.21	0.35	139.5	178.5	-886.5	0	0	0	0	0	0	0	0	0	0	0	0	0	0	0	0	0	0	168361	203531	0
1651053513535	-24.4	-5.368	1028.704	0.35	-0.35	0.42	144	175.5	-883.5	0	0	0	0	0	0	0	0	0	0	0	0	0	0	0	0	0	0	168351	203525	0
1651053513545	-28.304	-4.392	1019.432	0.49	-0.14	0.35	142.5	172.5	-882	0	0	0	0	0	0	0	0	0	0	0	0	0	0	0	0	0	0	168362	203550	0
1651053513555	-18.056	-11.712	1024.312	0.49	-0.35	0.35	136.5	175.5	-883.5	0	0	0	0	0	0	0	0	0	0	0	0	0	0	0	0	0	0	168370	203549	0
1651053513565	-26.352	-7.808	1022.848	0.28	-0.21	0.56	132	177	-883.5	0	0	0	0	0	0	0	0	0	0	0	0	0	0	0	0	0	0	168380	203540	0
1651053513575	-24.888	-15.616	1020.896	0.35	-0.21	0.42	132	180	-886.5	0	0	0	0	0	0	0	0	0	0	0	0	0	0	0	0	0	0	168373	203547	0
1651053513585	-15.128	-9.76	1023.824	0.28	-0.28	0.42	132	178.5	-886.5	0	0	0	0	0	0	0	0	0	0	0	0	0	0	0	0	0	0	168382	203562	0
1651053513595	-16.104	-8.296	1021.384	0.35	-0.28	0.35	133.5	172.5	-888	0	0	0	0	0	0	0	0	0	0	0	0	0	0	0	0	0	0	168392	203567	0
1651053513605	-31.72	-1.464	1019.92	0.35	-0.21	0.28	141	174	-883.5	0	0	0	0	0	0	0	0	0	0	0	0	0	0	0	0	0	0	168394	203579	0
1651053513615	-16.104	-5.856	1018.944	0.42	-0.28	0.42	138	174	-879	0	0	0	0	0	0	0	0	0	0	0	0	0	0	0	0	0	0	168408	203574	0
1651053513625	-26.84	-1.952	1022.36	0.35	-0.28	0.42	139.5	174	-880.5	0	0	0	0	0	0	0	0	0	0	0	0	0	0	0	0	0	0	168417	203581	0
1651053513635	-24.888	-2.928	1021.872	0.49	-0.14	0.49	145.5	177	-883.5	0	0	0	0	0	0	0	0	0	0	0	0	0	0	0	0	0	0	168412	203568	0
1651053513645	-24.4	0	1024.312	0.35	-0.28	0.49	141	174	-882	0	0	0	0	0	0	0	0	0	0	0	0	0	0	0	0	0	0	168410	203569	0
1651053513655	-24.4	-1.952	1024.8	0.35	-0.21	0.35	133.5	172.5	-880.5	0	0	0	0	0	0	0	0	0	0	0	0	0	0	0	0	0	0	168433	203595	0
1651053513665	-26.84	-12.2	1022.36	0.35	-0.21	0.42	136.5	177	-882	0	0	0	0	0	0	0	0	0	0	0	0	0	0	0	0	0	0	168432	203610	0
1651053513675	-21.96	-9.272	1023.336	0.42	-0.21	0.42	133.5	178.5	-885	0	0	0	0	0	0	0	0	0	0	0	0	0	0	0	0	0	0	168442	203606	0
1651053513685	-26.84	-6.344	1022.848	0.35	-0.35	0.42	130.5	175.5	-883.5	0	0	0	0	0	0	0	0	0	0	0	0	0	0	0	0	0	0	168431	203617	0
1651053513695	-32.208	-1.952	1016.992	0.28	-0.28	0.42	138	172.5	-885	0	0	0	0	0	0	0	0	0	0	0	0	0	0	0	0	0	0	168433	203637	0
1651053513705	-25.376	-0.488	1019.92	0.35	-0.21	0.35	142.5	171	-888	0	0	0	0	0	0	0	0	0	0	0	0	0	0	0	0	0	0	168399	203603	0
1651053513715	-16.592	-2.928	1022.848	0.35	-0.28	0.35	144	169.5	-885	0	0	0	0	0	0	0	0	0	0	0	0	0	0	0	0	0	0	168387	203623	0
1651053513725	-26.84	-4.392	1026.264	0.35	-0.28	0.42	141	169.5	-883.5	0	0	0	0	0	0	0	0	0	0	0	0	0	0	0	0	0	0	168385	203614	0
1651053513735	-19.52	-8.296	1021.384	0.35	-0.28	0.35	139.5	174	-888	0	0	0	0	0	0	0	0	0	0	0	0	0	0	0	0	0	0	168364	203616	0
1651053513745	-25.376	-10.248	1016.016	0.35	-0.21	0.35	136.5	175.5	-885	0	0	0	0	0	0	0	0	0	0	0	0	0	0	0	0	0	0	168368	203615	0
1651053513755	-22.448	-11.224	1017.968	0.35	-0.28	0.35	135	174	-879	0	0	0	0	0	0	0	0	0	0	0	0	0	0	0	0	0	0	168359	203621	0
1651053513765	-19.032	-4.392	1021.384	0.35	-0.28	0.35	135	172.5	-877.5	0	0	0	0	0	0	0	0	0	0	0	0	0	0	0	0	0	0	168358	203613	0
1651053513775	-28.304	-2.928	1024.312	0.42	-0.21	0.35	136.5	172.5	-883.5	0	0	0	0	0	0	0	0	0	0	0	0	0	0	0	0	0	0	168336	203602	0
1651053513785	-28.792	-1.952	1016.992	0.49	-0.28	0.42	139.5	175.5	-882	0	0	0	0	0	0	0	0	0	0	0	0	0	0	0	0	0	0	168346	203578	0
1651053513795	-28.792	-4.392	1022.848	0.35	-0.21	0.42	135	178.5	-880.5	0	0	0	0	0	0	0	0	0	0	0	0	0	0	0	0	0	0	168340	203566	0
1651053513805	-26.84	-8.296	1023.824	0.42	-0.21	0.42	135	175.5	-879	0	0	0	0	0	0	0	0	0	0	0	0	0	0	0	0	0	0	168340	203551	0
1651053513815	-25.864	-6.832	1016.992	0.35	-0.35	0.42	141	175.5	-882	0	0	0	0	0	0	0	0	0	0	0	0	0	0	0	0	0	0	168330	203539	0
1651053513825	-25.864	-5.856	1018.944	0.42	-0.28	0.42	138	174	-883.5	0	0	0	0	0	0	0	0	0	0	0	0	0	0	0	0	0	0	168319	203541	0
1651053513835	-21.96	-6.344	1020.408	0.35	-0.21	0.42	135	175.5	-886.5	0	0	0	0	0	0	0	0	0	0	0	0	0	0	0	0	0	0	168332	203531	0
1651053513845	-24.888	-5.856	1021.872	0.42	-0.28	0.49	136.5	172.5	-886.5	0	0	0	0	0	0	0	0	0	0	0	0	0	0	0	0	0	0	168321	203533	0
1651053513855	-20.496	-0.976	1023.336	0.35	-0.14	0.49	135	171	-885	0	0	0	0	0	0	0	0	0	0	0	0	0	0	0	0	0	0	168302	203519	0
1651053513865	-24.888	-0.976	1021.384	0.49	-0.21	0.35	133.5	178.5	-886.5	0	0	0	0	0	0	0	0	0	0	0	0	0	0	0	0	0	0	168314	203537	0
1651053513875	-20.008	-11.224	1018.456	0.35	-0.28	0.42	135	177	-886.5	0	0	0	0	0	0	0	0	0	0	0	0	0	0	0	0	0	0	168305	203535	0
1651053513885	-22.448	-13.176	1021.872	0.35	-0.28	0.28	138	178.5	-883.5	0	0	0	0	0	0	0	0	0	0	0	0	0	0	0	0	0	0	168300	203546	0
1651053513895	-26.84	-6.344	1014.064	0.35	-0.14	0.42	135	174	-882	0	0	0	0	0	0	0	0	0	0	0	0	0	0	0	0	0	0	168279	203559	0
1651053513905	-30.256	-6.344	1012.6	0.35	-0.28	0.42	138	171	-883.5	0	0	0	0	0	0	0	0	0	0	0	0	0	0	0	0	0	0	168281	203578	0
1651053513915	-26.84	-3.904	1027.24	0.35	-0.28	0.42	138	175.5	-888	0	0	0	0	0	0	0	0	0	0	0	0	0	0	0	0	0	0	168265	203604	0
1651053513925	-24.888	1.464	1020.896	0.42	-0.35	0.49	138	174	-886.5	0	0	0	0	0	0	0	0	0	0	0	0	0	0	0	0	0	0	168261	203604	0
1651053513935	-24.4	-4.88	1016.992	0.35	-0.28	0.28	139.5	174	-883.5	0	0	0	0	0	0	0	0	0	0	0	0	0	0	0	0	0	0	168250	203620	0
1651053513945	-19.032	-9.272	1020.896	0.42	-0.28	0.42	141	174	-883.5	0	0	0	0	0	0	0	0	0	0	0	0	0	0	0	0	0	0	168247	203629	0
1651053513955	-20.496	-10.736	1026.752	0.42	-0.28	0.49	139.5	175.5	-882	0	0	0	0	0	0	0	0	0	0	0	0	0	0	0	0	0	0	168245	203614	0
1651053513965	-27.816	-10.248	1019.432	0.42	-0.28	0.42	139.5	172.5	-879	0	0	0	0	0	0	0	0	0	0	0	0	0	0	0	0	0	0	168223	203620	0
1651053513975	-22.936	-10.736	1023.336	0.42	-0.14	0.42	141	168	-879	0	0	0	0	0	0	0	0	0	0	0	0	0	0	0	0	0	0	168231	203620	0
1651053513985	-21.96	-5.368	1022.36	0.35	-0.28	0.42	138	169.5	-886.5	0	0	0	0	0	0	0	0	0	0	0	0	0	0	0	0	0	0	168226	203617	0
1651053513995	-19.032	-2.928	1015.528	0.35	-0.28	0.42	132	174	-886.5	0	0	0	0	0	0	0	0	0	0	0	0	0	0	0	0	0	0	168228	203623	0
1651053514005	-23.424	-4.392	1021.384	0.42	-0.21	0.42	132	175.5	-880.5	0	0	0	0	0	0	0	0	0	0	0	0	0	0	0	0	0	0	168210	203608	0
